task id session trial condition trialxcondition RT accuracy liking_ratings rounds
pavlovian_learning 02 one 1 CSplus 1 0.290965 1 66.949153 1
pavlovian_learning 02 one 2 CSplus 2 0.303185 1 66.949153 2
pavlovian_learning 02 one 3 CSplus 3 0.289071 1 66.949153 3
pavlovian_learning 02 one 4 CSminus 1 0.433248 1 39.830508 1
pavlovian_learning 02 one 5 CSminus 2 0.350719 1 39.830508 2
pavlovian_learning 02 one 6 CSminus 3 0.339750 1 39.830508 3
pavlovian_learning 02 one 7 CSplus 4 0.296795 1 66.949153 1
pavlovian_learning 02 one 8 CSplus 5 0.314527 1 66.949153 2
pavlovian_learning 02 one 9 CSplus 6 0.306894 1 66.949153 3
pavlovian_learning 02 one 10 CSminus 4 0.440148 1 39.830508 1
pavlovian_learning 02 one 11 CSminus 5 0.295543 1 39.830508 2
pavlovian_learning 02 one 12 CSminus 6 0.271971 1 39.830508 3
pavlovian_learning 02 one 13 CSplus 7 0.423075 1 66.949153 1
pavlovian_learning 02 one 14 CSplus 8 0.295602 1 66.949153 2
pavlovian_learning 02 one 15 CSplus 9 0.456851 1 66.949153 3
pavlovian_learning 02 one 16 CSminus 7 0.419718 1 39.830508 1
pavlovian_learning 02 one 17 CSminus 8 0.366163 1 39.830508 2
pavlovian_learning 02 one 18 CSminus 9 0.341572 1 39.830508 3
pavlovian_learning 02 one 19 CSplus 10 0.329664 1 66.949153 1
pavlovian_learning 02 one 20 CSplus 11 0.303398 1 66.949153 2
pavlovian_learning 02 one 21 CSplus 12 0.291741 1 66.949153 3
pavlovian_learning 02 one 22 CSminus 10 0.340423 1 39.830508 1
pavlovian_learning 02 one 23 CSminus 11 0.363076 1 39.830508 2
pavlovian_learning 02 one 24 CSminus 12 0.313541 1 39.830508 3
pavlovian_learning 02 one 25 CSplus 13 0.282128 1 66.949153 1
pavlovian_learning 02 one 26 CSplus 14 0.399600 1 66.949153 2
pavlovian_learning 02 one 27 CSplus 15 0.260011 1 66.949153 3
pavlovian_learning 02 one 28 CSminus 13 0.408977 1 39.830508 1
pavlovian_learning 02 one 29 CSminus 14 0.343154 1 39.830508 2
pavlovian_learning 02 one 30 CSminus 15 0.355988 1 39.830508 3
pavlovian_learning 02 one 31 CSplus 16 0.335952 1 66.949153 1
pavlovian_learning 02 one 32 CSplus 17 0.307938 1 66.949153 2
pavlovian_learning 02 one 33 CSplus 18 0.325335 1 66.949153 3
pavlovian_learning 02 one 34 CSminus 16 0.313467 1 39.830508 1
pavlovian_learning 02 one 35 CSminus 17 0.296479 1 39.830508 2
pavlovian_learning 02 one 36 CSminus 18 0.338802 1 39.830508 3
pavlovian_learning 02 one 37 CSplus 19 0.324171 1 66.949153 1
pavlovian_learning 02 one 38 CSplus 20 0.248407 1 66.949153 2
pavlovian_learning 02 one 39 CSplus 21 0.329572 1 66.949153 3
pavlovian_learning 02 one 40 CSminus 19 0.693809 1 39.830508 1
pavlovian_learning 02 one 41 CSminus 20 0.349617 1 39.830508 2
pavlovian_learning 02 one 42 CSminus 21 0.586241 1 39.830508 3
pavlovian_learning 02 one 43 CSplus 22 0.415900 1 66.949153 1
pavlovian_learning 02 one 44 CSplus 23 0.341398 1 66.949153 2
pavlovian_learning 02 one 45 CSplus 24 0.275508 1 66.949153 3
pavlovian_learning 02 one 46 CSminus 22 0.338726 1 39.830508 1
pavlovian_learning 02 one 47 CSminus 23 0.286136 1 39.830508 2
pavlovian_learning 02 one 48 CSminus 24 0.313223 1 39.830508 3
pavlovian_learning 02 one 49 CSplus 25 0.346463 1 66.949153 1
pavlovian_learning 02 one 50 CSplus 26 0.288567 1 66.949153 2
pavlovian_learning 02 one 51 CSplus 27 0.311848 1 66.949153 3
pavlovian_learning 02 one 52 CSminus 25 0.325539 1 39.830508 1
pavlovian_learning 02 one 53 CSminus 26 0.311117 1 39.830508 2
pavlovian_learning 02 one 54 CSminus 27 0.363764 1 39.830508 3
pavlovian_learning 02 one 55 CSplus 28 0.447565 1 66.949153 1
pavlovian_learning 02 one 56 CSplus 29 0.287497 1 66.949153 2
pavlovian_learning 02 one 57 CSplus 30 0.300532 1 66.949153 3
pavlovian_learning 02 one 58 CSminus 28 0.305060 1 39.830508 1
pavlovian_learning 02 one 59 CSminus 29 0.344212 1 39.830508 2
pavlovian_learning 02 one 60 CSminus 30 0.299662 1 39.830508 3
pavlovian_learning 02 one 61 CSplus 31 0.280913 1 66.949153 1
pavlovian_learning 02 one 62 CSplus 32 0.274459 1 66.949153 2
pavlovian_learning 02 one 63 CSplus 33 0.279018 1 66.949153 3
pavlovian_learning 02 one 64 CSminus 31 0.451013 1 39.830508 1
pavlovian_learning 02 one 65 CSminus 32 0.337155 1 39.830508 2
pavlovian_learning 02 one 66 CSminus 33 0.279377 1 39.830508 3
pavlovian_learning 02 one 67 CSplus 34 0.343662 1 66.949153 1
pavlovian_learning 02 one 68 CSplus 35 0.313438 1 66.949153 2
pavlovian_learning 02 one 69 CSplus 36 0.486597 1 66.949153 3
pavlovian_learning 02 one 70 CSminus 34 0.447884 1 39.830508 1
pavlovian_learning 02 one 71 CSminus 35 0.306481 1 39.830508 2
pavlovian_learning 02 one 72 CSminus 36 0.420617 1 39.830508 3
pavlovian_learning 02 one 73 CSplus 37 0.305241 1 66.949153 1
pavlovian_learning 02 one 74 CSplus 38 0.313453 1 66.949153 2
pavlovian_learning 02 one 75 CSplus 39 0.314960 1 66.949153 3
pavlovian_learning 02 one 76 CSminus 37 0.435975 1 39.830508 1
pavlovian_learning 02 one 77 CSminus 38 0.295123 1 39.830508 2
pavlovian_learning 02 one 78 CSminus 39 0.279521 1 39.830508 3
pavlovian_learning 02 one 79 CSplus 40 0.277052 1 66.949153 1
pavlovian_learning 02 one 80 CSplus 41 0.306747 1 66.949153 2
pavlovian_learning 02 one 81 CSplus 42 0.304602 1 66.949153 3
pavlovian_learning 02 one 82 CSminus 40 0.410624 1 39.830508 1
pavlovian_learning 02 one 83 CSminus 41 0.314730 1 39.830508 2
pavlovian_learning 02 one 84 CSminus 42 0.339842 1 39.830508 3
pavlovian_learning 02 one 85 CSplus 43 0.309999 1 66.949153 1
pavlovian_learning 02 one 86 CSplus 44 0.293555 1 66.949153 2
pavlovian_learning 02 one 87 CSplus 45 0.292118 1 66.949153 3
pavlovian_learning 02 one 88 CSminus 43 0.714437 1 39.830508 1
pavlovian_learning 02 one 89 CSminus 44 0.336755 1 39.830508 2
pavlovian_learning 02 one 90 CSminus 45 0.290942 1 39.830508 3
pavlovian_learning 02 one 91 CSplus 46 0.456266 1 66.949153 1
pavlovian_learning 02 one 92 CSplus 47 0.284384 1 66.949153 2
pavlovian_learning 02 one 93 CSplus 48 0.294597 1 66.949153 3
pavlovian_learning 02 one 94 CSminus 46 0.284890 1 39.830508 1
pavlovian_learning 02 one 95 CSminus 47 0.288703 1 39.830508 2
pavlovian_learning 02 one 96 CSminus 48 0.305775 1 39.830508 3
pavlovian_learning 02 one 97 CSplus 49 0.287465 1 66.949153 1
pavlovian_learning 02 one 98 CSplus 50 0.297260 1 66.949153 2
pavlovian_learning 02 one 99 CSplus 51 0.267842 1 66.949153 3
pavlovian_learning 02 one 100 CSminus 49 0.337200 1 39.830508 1
pavlovian_learning 02 one 101 CSminus 50 0.352941 1 39.830508 2
pavlovian_learning 02 one 102 CSminus 51 0.360042 1 39.830508 3
pavlovian_learning 02 one 103 CSplus 52 0.320945 1 66.949153 1
pavlovian_learning 02 one 104 CSplus 53 0.281319 1 66.949153 2
pavlovian_learning 02 one 105 CSplus 54 0.287494 1 66.949153 3
pavlovian_learning 02 one 106 CSminus 52 0.320253 1 39.830508 1
pavlovian_learning 02 one 107 CSminus 53 0.310751 1 39.830508 2
pavlovian_learning 02 one 108 CSminus 54 0.292230 1 39.830508 3
pavlovian_learning 02 one 109 Baseline 0 NaN NaN 50.000000 NaN
pavlovian_learning 03 one 1 CSplus 1 0.444732 1 36.440678 1
pavlovian_learning 03 one 2 CSplus 2 0.384347 1 36.440678 2
pavlovian_learning 03 one 3 CSplus 3 0.306606 1 36.440678 3
pavlovian_learning 03 one 4 CSminus 1 0.341503 1 50.000000 1
pavlovian_learning 03 one 5 CSminus 2 0.504518 1 50.000000 2
pavlovian_learning 03 one 6 CSminus 3 0.434055 1 50.000000 3
pavlovian_learning 03 one 7 CSplus 4 0.394351 1 36.440678 1
pavlovian_learning 03 one 8 CSplus 5 0.338954 1 36.440678 2
pavlovian_learning 03 one 9 CSplus 6 0.351317 1 36.440678 3
pavlovian_learning 03 one 10 CSminus 4 0.293815 1 50.000000 1
pavlovian_learning 03 one 11 CSminus 5 0.315275 1 50.000000 2
pavlovian_learning 03 one 12 CSminus 6 0.288572 1 50.000000 3
pavlovian_learning 03 one 13 CSplus 7 0.317622 1 36.440678 1
pavlovian_learning 03 one 14 CSplus 8 0.301639 1 36.440678 2
pavlovian_learning 03 one 15 CSplus 9 0.287499 1 36.440678 3
pavlovian_learning 03 one 16 CSminus 7 0.314017 1 50.000000 1
pavlovian_learning 03 one 17 CSminus 8 0.340753 1 50.000000 2
pavlovian_learning 03 one 18 CSminus 9 0.310679 1 50.000000 3
pavlovian_learning 03 one 19 CSplus 10 0.312635 1 36.440678 1
pavlovian_learning 03 one 20 CSplus 11 0.481698 1 36.440678 2
pavlovian_learning 03 one 21 CSplus 12 0.404717 1 36.440678 3
pavlovian_learning 03 one 22 CSminus 10 0.320210 1 50.000000 1
pavlovian_learning 03 one 23 CSminus 11 0.359924 1 50.000000 2
pavlovian_learning 03 one 24 CSminus 12 0.313534 1 50.000000 3
pavlovian_learning 03 one 25 CSplus 13 0.385265 1 36.440678 1
pavlovian_learning 03 one 26 CSplus 14 0.318432 1 36.440678 2
pavlovian_learning 03 one 27 CSplus 15 0.329512 1 36.440678 3
pavlovian_learning 03 one 28 CSminus 13 0.346791 1 50.000000 1
pavlovian_learning 03 one 29 CSminus 14 0.316105 1 50.000000 2
pavlovian_learning 03 one 30 CSminus 15 0.276814 1 50.000000 3
pavlovian_learning 03 one 31 CSplus 16 0.569873 1 36.440678 1
pavlovian_learning 03 one 32 CSplus 17 0.334186 1 36.440678 2
pavlovian_learning 03 one 33 CSplus 18 0.343467 1 36.440678 3
pavlovian_learning 03 one 34 CSminus 16 0.306559 1 50.000000 1
pavlovian_learning 03 one 35 CSminus 17 0.321097 1 50.000000 2
pavlovian_learning 03 one 36 CSminus 18 0.277633 1 50.000000 3
pavlovian_learning 03 one 37 CSplus 19 0.315631 1 36.440678 1
pavlovian_learning 03 one 38 CSplus 20 0.402394 1 36.440678 2
pavlovian_learning 03 one 39 CSplus 21 0.272291 1 36.440678 3
pavlovian_learning 03 one 40 CSminus 19 0.296533 1 50.000000 1
pavlovian_learning 03 one 41 CSminus 20 0.345439 1 50.000000 2
pavlovian_learning 03 one 42 CSminus 21 0.299782 1 50.000000 3
pavlovian_learning 03 one 43 CSplus 22 0.326167 1 36.440678 1
pavlovian_learning 03 one 44 CSplus 23 0.401176 1 36.440678 2
pavlovian_learning 03 one 45 CSplus 24 0.338141 1 36.440678 3
pavlovian_learning 03 one 46 CSminus 22 0.286151 1 50.000000 1
pavlovian_learning 03 one 47 CSminus 23 0.286821 1 50.000000 2
pavlovian_learning 03 one 48 CSminus 24 0.297843 1 50.000000 3
pavlovian_learning 03 one 49 CSplus 25 0.356747 1 36.440678 1
pavlovian_learning 03 one 50 CSplus 26 0.314120 1 36.440678 2
pavlovian_learning 03 one 51 CSplus 27 0.313322 1 36.440678 3
pavlovian_learning 03 one 52 CSminus 25 0.288154 1 50.000000 1
pavlovian_learning 03 one 53 CSminus 26 0.293026 1 50.000000 2
pavlovian_learning 03 one 54 CSminus 27 0.287088 1 50.000000 3
pavlovian_learning 03 one 55 CSplus 28 0.152301 1 36.440678 1
pavlovian_learning 03 one 56 CSplus 29 0.305683 1 36.440678 2
pavlovian_learning 03 one 57 CSplus 30 0.343249 1 36.440678 3
pavlovian_learning 03 one 58 CSminus 28 0.331311 1 50.000000 1
pavlovian_learning 03 one 59 CSminus 29 0.358110 1 50.000000 2
pavlovian_learning 03 one 60 CSminus 30 0.296084 1 50.000000 3
pavlovian_learning 03 one 61 CSplus 31 0.342378 1 36.440678 1
pavlovian_learning 03 one 62 CSplus 32 0.319749 1 36.440678 2
pavlovian_learning 03 one 63 CSplus 33 0.286688 1 36.440678 3
pavlovian_learning 03 one 64 CSminus 31 0.306155 1 50.000000 1
pavlovian_learning 03 one 65 CSminus 32 0.399348 1 50.000000 2
pavlovian_learning 03 one 66 CSminus 33 0.274568 1 50.000000 3
pavlovian_learning 03 one 67 CSplus 34 0.309911 1 36.440678 1
pavlovian_learning 03 one 68 CSplus 35 0.387208 1 36.440678 2
pavlovian_learning 03 one 69 CSplus 36 0.265914 1 36.440678 3
pavlovian_learning 03 one 70 CSminus 34 0.311076 1 50.000000 1
pavlovian_learning 03 one 71 CSminus 35 0.496950 1 50.000000 2
pavlovian_learning 03 one 72 CSminus 36 0.334454 1 50.000000 3
pavlovian_learning 03 one 73 CSplus 37 0.336284 1 36.440678 1
pavlovian_learning 03 one 74 CSplus 38 0.291007 1 36.440678 2
pavlovian_learning 03 one 75 CSplus 39 0.351348 1 36.440678 3
pavlovian_learning 03 one 76 CSminus 37 0.265708 1 50.000000 1
pavlovian_learning 03 one 77 CSminus 38 0.306373 1 50.000000 2
pavlovian_learning 03 one 78 CSminus 39 0.288793 1 50.000000 3
pavlovian_learning 03 one 79 CSplus 40 0.342942 1 36.440678 1
pavlovian_learning 03 one 80 CSplus 41 0.342084 1 36.440678 2
pavlovian_learning 03 one 81 CSplus 42 0.315579 1 36.440678 3
pavlovian_learning 03 one 82 CSminus 40 0.272775 1 50.000000 1
pavlovian_learning 03 one 83 CSminus 41 0.291510 1 50.000000 2
pavlovian_learning 03 one 84 CSminus 42 0.342186 1 50.000000 3
pavlovian_learning 03 one 85 CSplus 43 0.364201 1 36.440678 1
pavlovian_learning 03 one 86 CSplus 44 0.315930 1 36.440678 2
pavlovian_learning 03 one 87 CSplus 45 0.305341 1 36.440678 3
pavlovian_learning 03 one 88 CSminus 43 0.300497 1 50.000000 1
pavlovian_learning 03 one 89 CSminus 44 0.308156 1 50.000000 2
pavlovian_learning 03 one 90 CSminus 45 0.272703 1 50.000000 3
pavlovian_learning 03 one 91 CSplus 46 0.299036 1 36.440678 1
pavlovian_learning 03 one 92 CSplus 47 0.341431 1 36.440678 2
pavlovian_learning 03 one 93 CSplus 48 0.328983 1 36.440678 3
pavlovian_learning 03 one 94 CSminus 46 0.309770 1 50.000000 1
pavlovian_learning 03 one 95 CSminus 47 0.364855 1 50.000000 2
pavlovian_learning 03 one 96 CSminus 48 0.277660 1 50.000000 3
pavlovian_learning 03 one 97 CSplus 49 0.373710 1 36.440678 1
pavlovian_learning 03 one 98 CSplus 50 0.306217 1 36.440678 2
pavlovian_learning 03 one 99 CSplus 51 0.445894 1 36.440678 3
pavlovian_learning 03 one 100 CSminus 49 0.362090 1 50.000000 1
pavlovian_learning 03 one 101 CSminus 50 0.280614 1 50.000000 2
pavlovian_learning 03 one 102 CSminus 51 0.381662 1 50.000000 3
pavlovian_learning 03 one 103 CSplus 52 0.374751 1 36.440678 1
pavlovian_learning 03 one 104 CSplus 53 0.294418 1 36.440678 2
pavlovian_learning 03 one 105 CSplus 54 0.310927 1 36.440678 3
pavlovian_learning 03 one 106 CSminus 52 0.336848 1 50.000000 1
pavlovian_learning 03 one 107 CSminus 53 0.434136 1 50.000000 2
pavlovian_learning 03 one 108 CSminus 54 0.280542 1 50.000000 3
pavlovian_learning 03 one 109 Baseline 0 NaN NaN 50.847458 NaN
pavlovian_learning 04 one 1 CSplus 1 0.329793 1 87.288136 1
pavlovian_learning 04 one 2 CSplus 2 0.313604 1 87.288136 2
pavlovian_learning 04 one 3 CSplus 3 0.305061 1 87.288136 3
pavlovian_learning 04 one 4 CSminus 1 0.315937 1 20.338983 1
pavlovian_learning 04 one 5 CSminus 2 0.450805 1 20.338983 2
pavlovian_learning 04 one 6 CSminus 3 0.258258 1 20.338983 3
pavlovian_learning 04 one 7 CSplus 4 0.379426 1 87.288136 1
pavlovian_learning 04 one 8 CSplus 5 0.418023 1 87.288136 2
pavlovian_learning 04 one 9 CSplus 6 0.275738 1 87.288136 3
pavlovian_learning 04 one 10 CSminus 4 0.308045 1 20.338983 1
pavlovian_learning 04 one 11 CSminus 5 0.304095 1 20.338983 2
pavlovian_learning 04 one 12 CSminus 6 0.275436 1 20.338983 3
pavlovian_learning 04 one 13 CSplus 7 0.355377 1 87.288136 1
pavlovian_learning 04 one 14 CSplus 8 0.353096 1 87.288136 2
pavlovian_learning 04 one 15 CSplus 9 0.284107 1 87.288136 3
pavlovian_learning 04 one 16 CSminus 7 0.327736 1 20.338983 1
pavlovian_learning 04 one 17 CSminus 8 0.240055 1 20.338983 2
pavlovian_learning 04 one 18 CSminus 9 0.244717 1 20.338983 3
pavlovian_learning 04 one 19 CSplus 10 0.386990 1 87.288136 1
pavlovian_learning 04 one 20 CSplus 11 0.263753 1 87.288136 2
pavlovian_learning 04 one 21 CSplus 12 0.360477 1 87.288136 3
pavlovian_learning 04 one 22 CSminus 10 0.271885 1 20.338983 1
pavlovian_learning 04 one 23 CSminus 11 0.265788 1 20.338983 2
pavlovian_learning 04 one 24 CSminus 12 0.255238 1 20.338983 3
pavlovian_learning 04 one 25 CSplus 13 0.192081 1 87.288136 1
pavlovian_learning 04 one 26 CSplus 14 0.328780 1 87.288136 2
pavlovian_learning 04 one 27 CSplus 15 0.324510 1 87.288136 3
pavlovian_learning 04 one 28 CSminus 13 0.018508 1 20.338983 1
pavlovian_learning 04 one 29 CSminus 14 0.263320 1 20.338983 2
pavlovian_learning 04 one 30 CSminus 15 0.244154 1 20.338983 3
pavlovian_learning 04 one 31 CSplus 16 0.265631 1 87.288136 1
pavlovian_learning 04 one 32 CSplus 17 0.224303 1 87.288136 2
pavlovian_learning 04 one 33 CSplus 18 0.325655 1 87.288136 3
pavlovian_learning 04 one 34 CSminus 16 0.345272 1 20.338983 1
pavlovian_learning 04 one 35 CSminus 17 0.298688 1 20.338983 2
pavlovian_learning 04 one 36 CSminus 18 0.284235 1 20.338983 3
pavlovian_learning 04 one 37 CSplus 19 0.272208 1 87.288136 1
pavlovian_learning 04 one 38 CSplus 20 0.287198 1 87.288136 2
pavlovian_learning 04 one 39 CSplus 21 0.303200 1 87.288136 3
pavlovian_learning 04 one 40 CSminus 19 0.243749 1 20.338983 1
pavlovian_learning 04 one 41 CSminus 20 0.305912 1 20.338983 2
pavlovian_learning 04 one 42 CSminus 21 0.262165 1 20.338983 3
pavlovian_learning 04 one 43 CSplus 22 0.311798 1 87.288136 1
pavlovian_learning 04 one 44 CSplus 23 0.300442 1 87.288136 2
pavlovian_learning 04 one 45 CSplus 24 0.338518 1 87.288136 3
pavlovian_learning 04 one 46 CSminus 22 0.322610 1 20.338983 1
pavlovian_learning 04 one 47 CSminus 23 0.316738 1 20.338983 2
pavlovian_learning 04 one 48 CSminus 24 0.206684 1 20.338983 3
pavlovian_learning 04 one 49 CSplus 25 0.242185 1 87.288136 1
pavlovian_learning 04 one 50 CSplus 26 0.603278 1 87.288136 2
pavlovian_learning 04 one 51 CSplus 27 0.268691 1 87.288136 3
pavlovian_learning 04 one 52 CSminus 25 0.363968 1 20.338983 1
pavlovian_learning 04 one 53 CSminus 26 0.249602 1 20.338983 2
pavlovian_learning 04 one 54 CSminus 27 0.237301 1 20.338983 3
pavlovian_learning 04 one 55 CSplus 28 0.274671 1 87.288136 1
pavlovian_learning 04 one 56 CSplus 29 0.429102 1 87.288136 2
pavlovian_learning 04 one 57 CSplus 30 0.432638 1 87.288136 3
pavlovian_learning 04 one 58 CSminus 28 0.280383 1 20.338983 1
pavlovian_learning 04 one 59 CSminus 29 0.249502 1 20.338983 2
pavlovian_learning 04 one 60 CSminus 30 0.294985 1 20.338983 3
pavlovian_learning 04 one 61 CSplus 31 0.366151 1 87.288136 1
pavlovian_learning 04 one 62 CSplus 32 0.328862 1 87.288136 2
pavlovian_learning 04 one 63 CSplus 33 0.319747 1 87.288136 3
pavlovian_learning 04 one 64 CSminus 31 0.291087 1 20.338983 1
pavlovian_learning 04 one 65 CSminus 32 0.293169 1 20.338983 2
pavlovian_learning 04 one 66 CSminus 33 0.438974 1 20.338983 3
pavlovian_learning 04 one 67 CSplus 34 0.275818 1 87.288136 1
pavlovian_learning 04 one 68 CSplus 35 0.274726 1 87.288136 2
pavlovian_learning 04 one 69 CSplus 36 0.381806 1 87.288136 3
pavlovian_learning 04 one 70 CSminus 34 0.305153 1 20.338983 1
pavlovian_learning 04 one 71 CSminus 35 0.302724 1 20.338983 2
pavlovian_learning 04 one 72 CSminus 36 0.408417 1 20.338983 3
pavlovian_learning 04 one 73 CSplus 37 0.275383 1 87.288136 1
pavlovian_learning 04 one 74 CSplus 38 0.317603 1 87.288136 2
pavlovian_learning 04 one 75 CSplus 39 0.398423 1 87.288136 3
pavlovian_learning 04 one 76 CSminus 37 0.289476 1 20.338983 1
pavlovian_learning 04 one 77 CSminus 38 0.310838 1 20.338983 2
pavlovian_learning 04 one 78 CSminus 39 0.248177 1 20.338983 3
pavlovian_learning 04 one 79 CSplus 40 0.286125 1 87.288136 1
pavlovian_learning 04 one 80 CSplus 41 0.366031 1 87.288136 2
pavlovian_learning 04 one 81 CSplus 42 0.397857 1 87.288136 3
pavlovian_learning 04 one 82 CSminus 40 0.288341 1 20.338983 1
pavlovian_learning 04 one 83 CSminus 41 0.508213 1 20.338983 2
pavlovian_learning 04 one 84 CSminus 42 0.824739 1 20.338983 3
pavlovian_learning 04 one 85 CSplus 43 0.287979 1 87.288136 1
pavlovian_learning 04 one 86 CSplus 44 0.286719 1 87.288136 2
pavlovian_learning 04 one 87 CSplus 45 0.431578 1 87.288136 3
pavlovian_learning 04 one 88 CSminus 43 0.329203 1 20.338983 1
pavlovian_learning 04 one 89 CSminus 44 0.317901 1 20.338983 2
pavlovian_learning 04 one 90 CSminus 45 0.229725 1 20.338983 3
pavlovian_learning 04 one 91 CSplus 46 0.371342 1 87.288136 1
pavlovian_learning 04 one 92 CSplus 47 0.284213 1 87.288136 2
pavlovian_learning 04 one 93 CSplus 48 0.257758 1 87.288136 3
pavlovian_learning 04 one 94 CSminus 46 0.260124 1 20.338983 1
pavlovian_learning 04 one 95 CSminus 47 0.265145 1 20.338983 2
pavlovian_learning 04 one 96 CSminus 48 0.259083 1 20.338983 3
pavlovian_learning 04 one 97 CSplus 49 0.364158 1 87.288136 1
pavlovian_learning 04 one 98 CSplus 50 0.350390 1 87.288136 2
pavlovian_learning 04 one 99 CSplus 51 0.476260 1 87.288136 3
pavlovian_learning 04 one 100 CSminus 49 0.349944 1 20.338983 1
pavlovian_learning 04 one 101 CSminus 50 0.256695 1 20.338983 2
pavlovian_learning 04 one 102 CSminus 51 0.355908 1 20.338983 3
pavlovian_learning 04 one 103 CSplus 52 0.272579 1 87.288136 1
pavlovian_learning 04 one 104 CSplus 53 0.308010 1 87.288136 2
pavlovian_learning 04 one 105 CSplus 54 0.263867 1 87.288136 3
pavlovian_learning 04 one 106 CSminus 52 0.311313 1 20.338983 1
pavlovian_learning 04 one 107 CSminus 53 0.256411 1 20.338983 2
pavlovian_learning 04 one 108 CSminus 54 0.305431 1 20.338983 3
pavlovian_learning 04 one 109 Baseline 0 NaN NaN 8.474576 NaN
pavlovian_learning 05 one 1 CSplus 1 0.478304 1 71.186441 1
pavlovian_learning 05 one 2 CSplus 2 0.409410 1 71.186441 2
pavlovian_learning 05 one 3 CSplus 3 0.589620 1 71.186441 3
pavlovian_learning 05 one 4 CSminus 1 0.377141 1 71.186441 1
pavlovian_learning 05 one 5 CSminus 2 0.479909 1 71.186441 2
pavlovian_learning 05 one 6 CSminus 3 0.364785 1 71.186441 3
pavlovian_learning 05 one 7 CSplus 4 0.346531 1 71.186441 1
pavlovian_learning 05 one 8 CSplus 5 0.321860 1 71.186441 2
pavlovian_learning 05 one 9 CSplus 6 0.400734 1 71.186441 3
pavlovian_learning 05 one 10 CSminus 4 0.315419 1 71.186441 1
pavlovian_learning 05 one 11 CSminus 5 0.366923 1 71.186441 2
pavlovian_learning 05 one 12 CSminus 6 0.428762 1 71.186441 3
pavlovian_learning 05 one 13 CSplus 7 0.453178 1 71.186441 1
pavlovian_learning 05 one 14 CSplus 8 0.438236 1 71.186441 2
pavlovian_learning 05 one 15 CSplus 9 0.484028 1 71.186441 3
pavlovian_learning 05 one 16 CSminus 7 0.531398 1 71.186441 1
pavlovian_learning 05 one 17 CSminus 8 0.434548 1 71.186441 2
pavlovian_learning 05 one 18 CSminus 9 0.393124 1 71.186441 3
pavlovian_learning 05 one 19 CSplus 10 0.415806 1 71.186441 1
pavlovian_learning 05 one 20 CSplus 11 0.356647 1 71.186441 2
pavlovian_learning 05 one 21 CSplus 12 0.432268 1 71.186441 3
pavlovian_learning 05 one 22 CSminus 10 0.489828 1 71.186441 1
pavlovian_learning 05 one 23 CSminus 11 0.422716 1 71.186441 2
pavlovian_learning 05 one 24 CSminus 12 0.321023 1 71.186441 3
pavlovian_learning 05 one 25 CSplus 13 0.440392 1 71.186441 1
pavlovian_learning 05 one 26 CSplus 14 0.518434 1 71.186441 2
pavlovian_learning 05 one 27 CSplus 15 0.546326 1 71.186441 3
pavlovian_learning 05 one 28 CSminus 13 0.387798 1 71.186441 1
pavlovian_learning 05 one 29 CSminus 14 0.536363 1 71.186441 2
pavlovian_learning 05 one 30 CSminus 15 0.390708 1 71.186441 3
pavlovian_learning 05 one 31 CSplus 16 0.408609 1 71.186441 1
pavlovian_learning 05 one 32 CSplus 17 0.550909 1 71.186441 2
pavlovian_learning 05 one 33 CSplus 18 0.349480 1 71.186441 3
pavlovian_learning 05 one 34 CSminus 16 0.299359 1 71.186441 1
pavlovian_learning 05 one 35 CSminus 17 0.484873 1 71.186441 2
pavlovian_learning 05 one 36 CSminus 18 0.445865 1 71.186441 3
pavlovian_learning 05 one 37 CSplus 19 0.322018 1 71.186441 1
pavlovian_learning 05 one 38 CSplus 20 0.478917 1 71.186441 2
pavlovian_learning 05 one 39 CSplus 21 0.403982 1 71.186441 3
pavlovian_learning 05 one 40 CSminus 19 0.388299 1 71.186441 1
pavlovian_learning 05 one 41 CSminus 20 0.425370 1 71.186441 2
pavlovian_learning 05 one 42 CSminus 21 0.339747 1 71.186441 3
pavlovian_learning 05 one 43 CSplus 22 0.333877 1 71.186441 1
pavlovian_learning 05 one 44 CSplus 23 0.485490 1 71.186441 2
pavlovian_learning 05 one 45 CSplus 24 0.501124 1 71.186441 3
pavlovian_learning 05 one 46 CSminus 22 0.407801 1 71.186441 1
pavlovian_learning 05 one 47 CSminus 23 0.519824 1 71.186441 2
pavlovian_learning 05 one 48 CSminus 24 0.396635 1 71.186441 3
pavlovian_learning 05 one 49 CSplus 25 0.353873 1 71.186441 1
pavlovian_learning 05 one 50 CSplus 26 0.374476 1 71.186441 2
pavlovian_learning 05 one 51 CSplus 27 0.481402 1 71.186441 3
pavlovian_learning 05 one 52 CSminus 25 0.393913 1 71.186441 1
pavlovian_learning 05 one 53 CSminus 26 0.460311 1 71.186441 2
pavlovian_learning 05 one 54 CSminus 27 0.371560 1 71.186441 3
pavlovian_learning 05 one 55 CSplus 28 0.312401 1 71.186441 1
pavlovian_learning 05 one 56 CSplus 29 0.442354 1 71.186441 2
pavlovian_learning 05 one 57 CSplus 30 0.329505 1 71.186441 3
pavlovian_learning 05 one 58 CSminus 28 0.298173 1 71.186441 1
pavlovian_learning 05 one 59 CSminus 29 0.368832 1 71.186441 2
pavlovian_learning 05 one 60 CSminus 30 0.613870 1 71.186441 3
pavlovian_learning 05 one 61 CSplus 31 0.488603 1 71.186441 1
pavlovian_learning 05 one 62 CSplus 32 0.393294 1 71.186441 2
pavlovian_learning 05 one 63 CSplus 33 0.392642 1 71.186441 3
pavlovian_learning 05 one 64 CSminus 31 0.320780 1 71.186441 1
pavlovian_learning 05 one 65 CSminus 32 0.432020 1 71.186441 2
pavlovian_learning 05 one 66 CSminus 33 0.370817 1 71.186441 3
pavlovian_learning 05 one 67 CSplus 34 0.440323 1 71.186441 1
pavlovian_learning 05 one 68 CSplus 35 0.379351 1 71.186441 2
pavlovian_learning 05 one 69 CSplus 36 0.427504 1 71.186441 3
pavlovian_learning 05 one 70 CSminus 34 0.361828 1 71.186441 1
pavlovian_learning 05 one 71 CSminus 35 0.374176 1 71.186441 2
pavlovian_learning 05 one 72 CSminus 36 0.405094 1 71.186441 3
pavlovian_learning 05 one 73 CSplus 37 0.534596 1 71.186441 1
pavlovian_learning 05 one 74 CSplus 38 0.403175 1 71.186441 2
pavlovian_learning 05 one 75 CSplus 39 0.422596 1 71.186441 3
pavlovian_learning 05 one 76 CSminus 37 0.373944 1 71.186441 1
pavlovian_learning 05 one 77 CSminus 38 0.753621 1 71.186441 2
pavlovian_learning 05 one 78 CSminus 39 0.427976 1 71.186441 3
pavlovian_learning 05 one 79 CSplus 40 0.522403 1 71.186441 1
pavlovian_learning 05 one 80 CSplus 41 0.419876 1 71.186441 2
pavlovian_learning 05 one 81 CSplus 42 0.461472 1 71.186441 3
pavlovian_learning 05 one 82 CSminus 40 0.370751 1 71.186441 1
pavlovian_learning 05 one 83 CSminus 41 0.683324 1 71.186441 2
pavlovian_learning 05 one 84 CSminus 42 0.351957 1 71.186441 3
pavlovian_learning 05 one 85 CSplus 43 0.437727 1 71.186441 1
pavlovian_learning 05 one 86 CSplus 44 0.392447 1 71.186441 2
pavlovian_learning 05 one 87 CSplus 45 0.363925 1 71.186441 3
pavlovian_learning 05 one 88 CSminus 43 0.446636 1 71.186441 1
pavlovian_learning 05 one 89 CSminus 44 0.449805 1 71.186441 2
pavlovian_learning 05 one 90 CSminus 45 0.355139 1 71.186441 3
pavlovian_learning 05 one 91 CSplus 46 0.360844 1 71.186441 1
pavlovian_learning 05 one 92 CSplus 47 0.390287 1 71.186441 2
pavlovian_learning 05 one 93 CSplus 48 0.365215 1 71.186441 3
pavlovian_learning 05 one 94 CSminus 46 0.410016 1 71.186441 1
pavlovian_learning 05 one 95 CSminus 47 0.376183 1 71.186441 2
pavlovian_learning 05 one 96 CSminus 48 0.519876 1 71.186441 3
pavlovian_learning 05 one 97 CSplus 49 0.307686 1 71.186441 1
pavlovian_learning 05 one 98 CSplus 50 0.367440 1 71.186441 2
pavlovian_learning 05 one 99 CSplus 51 0.338039 1 71.186441 3
pavlovian_learning 05 one 100 CSminus 49 0.397566 1 71.186441 1
pavlovian_learning 05 one 101 CSminus 50 0.481316 1 71.186441 2
pavlovian_learning 05 one 102 CSminus 51 0.316663 1 71.186441 3
pavlovian_learning 05 one 103 CSplus 52 0.353710 1 71.186441 1
pavlovian_learning 05 one 104 CSplus 53 0.549340 1 71.186441 2
pavlovian_learning 05 one 105 CSplus 54 0.340250 1 71.186441 3
pavlovian_learning 05 one 106 CSminus 52 0.297758 1 71.186441 1
pavlovian_learning 05 one 107 CSminus 53 0.435769 1 71.186441 2
pavlovian_learning 05 one 108 CSminus 54 0.418532 1 71.186441 3
pavlovian_learning 05 one 109 Baseline 0 NaN NaN 73.728814 NaN
pavlovian_learning 06 one 1 CSplus 1 0.554197 1 79.661017 1
pavlovian_learning 06 one 2 CSplus 2 0.322204 1 79.661017 2
pavlovian_learning 06 one 3 CSplus 3 0.334108 1 79.661017 3
pavlovian_learning 06 one 4 CSminus 1 0.658087 1 50.000000 1
pavlovian_learning 06 one 5 CSminus 2 0.350605 1 50.000000 2
pavlovian_learning 06 one 6 CSminus 3 0.358972 1 50.000000 3
pavlovian_learning 06 one 7 CSplus 4 0.374854 1 79.661017 1
pavlovian_learning 06 one 8 CSplus 5 0.349445 1 79.661017 2
pavlovian_learning 06 one 9 CSplus 6 0.355634 1 79.661017 3
pavlovian_learning 06 one 10 CSminus 4 0.331481 1 50.000000 1
pavlovian_learning 06 one 11 CSminus 5 0.651227 1 50.000000 2
pavlovian_learning 06 one 12 CSminus 6 0.326072 1 50.000000 3
pavlovian_learning 06 one 13 CSplus 7 0.321603 1 79.661017 1
pavlovian_learning 06 one 14 CSplus 8 0.321094 1 79.661017 2
pavlovian_learning 06 one 15 CSplus 9 0.306681 1 79.661017 3
pavlovian_learning 06 one 16 CSminus 7 0.282908 1 50.000000 1
pavlovian_learning 06 one 17 CSminus 8 0.367387 1 50.000000 2
pavlovian_learning 06 one 18 CSminus 9 0.278235 1 50.000000 3
pavlovian_learning 06 one 19 CSplus 10 0.474856 1 79.661017 1
pavlovian_learning 06 one 20 CSplus 11 0.292810 1 79.661017 2
pavlovian_learning 06 one 21 CSplus 12 0.273360 1 79.661017 3
pavlovian_learning 06 one 22 CSminus 10 1.000000 0 50.000000 1
pavlovian_learning 06 one 23 CSminus 11 0.286694 1 50.000000 2
pavlovian_learning 06 one 24 CSminus 12 0.293517 1 50.000000 3
pavlovian_learning 06 one 25 CSplus 13 0.283217 1 79.661017 1
pavlovian_learning 06 one 26 CSplus 14 0.308922 1 79.661017 2
pavlovian_learning 06 one 27 CSplus 15 0.310864 1 79.661017 3
pavlovian_learning 06 one 28 CSminus 13 0.433348 1 50.000000 1
pavlovian_learning 06 one 29 CSminus 14 0.329674 1 50.000000 2
pavlovian_learning 06 one 30 CSminus 15 0.305887 1 50.000000 3
pavlovian_learning 06 one 31 CSplus 16 0.340481 1 79.661017 1
pavlovian_learning 06 one 32 CSplus 17 0.309719 1 79.661017 2
pavlovian_learning 06 one 33 CSplus 18 0.396069 1 79.661017 3
pavlovian_learning 06 one 34 CSminus 16 0.343022 1 50.000000 1
pavlovian_learning 06 one 35 CSminus 17 0.312747 1 50.000000 2
pavlovian_learning 06 one 36 CSminus 18 0.392894 1 50.000000 3
pavlovian_learning 06 one 37 CSplus 19 0.106874 1 79.661017 1
pavlovian_learning 06 one 38 CSplus 20 0.325985 1 79.661017 2
pavlovian_learning 06 one 39 CSplus 21 0.357465 1 79.661017 3
pavlovian_learning 06 one 40 CSminus 19 0.805454 1 50.000000 1
pavlovian_learning 06 one 41 CSminus 20 0.317281 1 50.000000 2
pavlovian_learning 06 one 42 CSminus 21 0.290080 1 50.000000 3
pavlovian_learning 06 one 43 CSplus 22 0.310440 1 79.661017 1
pavlovian_learning 06 one 44 CSplus 23 0.400274 1 79.661017 2
pavlovian_learning 06 one 45 CSplus 24 0.308445 1 79.661017 3
pavlovian_learning 06 one 46 CSminus 22 0.310762 1 50.000000 1
pavlovian_learning 06 one 47 CSminus 23 0.327118 1 50.000000 2
pavlovian_learning 06 one 48 CSminus 24 0.332093 1 50.000000 3
pavlovian_learning 06 one 49 CSplus 25 0.322336 1 79.661017 1
pavlovian_learning 06 one 50 CSplus 26 0.430783 1 79.661017 2
pavlovian_learning 06 one 51 CSplus 27 0.371365 1 79.661017 3
pavlovian_learning 06 one 52 CSminus 25 0.312242 1 50.000000 1
pavlovian_learning 06 one 53 CSminus 26 0.354482 1 50.000000 2
pavlovian_learning 06 one 54 CSminus 27 0.344513 1 50.000000 3
pavlovian_learning 06 one 55 CSplus 28 0.674091 1 79.661017 1
pavlovian_learning 06 one 56 CSplus 29 0.375937 1 79.661017 2
pavlovian_learning 06 one 57 CSplus 30 0.317915 1 79.661017 3
pavlovian_learning 06 one 58 CSminus 28 0.338276 1 50.000000 1
pavlovian_learning 06 one 59 CSminus 29 0.319076 1 50.000000 2
pavlovian_learning 06 one 60 CSminus 30 0.300811 1 50.000000 3
pavlovian_learning 06 one 61 CSplus 31 0.314560 1 79.661017 1
pavlovian_learning 06 one 62 CSplus 32 0.318532 1 79.661017 2
pavlovian_learning 06 one 63 CSplus 33 0.320338 1 79.661017 3
pavlovian_learning 06 one 64 CSminus 31 0.377951 1 50.000000 1
pavlovian_learning 06 one 65 CSminus 32 0.386742 1 50.000000 2
pavlovian_learning 06 one 66 CSminus 33 0.558112 1 50.000000 3
pavlovian_learning 06 one 67 CSplus 34 0.764944 1 79.661017 1
pavlovian_learning 06 one 68 CSplus 35 0.335078 1 79.661017 2
pavlovian_learning 06 one 69 CSplus 36 0.413420 1 79.661017 3
pavlovian_learning 06 one 70 CSminus 34 0.509101 1 50.000000 1
pavlovian_learning 06 one 71 CSminus 35 0.374680 1 50.000000 2
pavlovian_learning 06 one 72 CSminus 36 0.354732 1 50.000000 3
pavlovian_learning 06 one 73 CSplus 37 0.425282 1 79.661017 1
pavlovian_learning 06 one 74 CSplus 38 0.292529 1 79.661017 2
pavlovian_learning 06 one 75 CSplus 39 0.423593 1 79.661017 3
pavlovian_learning 06 one 76 CSminus 37 0.374942 1 50.000000 1
pavlovian_learning 06 one 77 CSminus 38 0.311928 1 50.000000 2
pavlovian_learning 06 one 78 CSminus 39 0.387609 1 50.000000 3
pavlovian_learning 06 one 79 CSplus 40 0.354056 1 79.661017 1
pavlovian_learning 06 one 80 CSplus 41 0.326588 1 79.661017 2
pavlovian_learning 06 one 81 CSplus 42 0.333135 1 79.661017 3
pavlovian_learning 06 one 82 CSminus 40 0.340895 1 50.000000 1
pavlovian_learning 06 one 83 CSminus 41 0.337525 1 50.000000 2
pavlovian_learning 06 one 84 CSminus 42 0.322687 1 50.000000 3
pavlovian_learning 06 one 85 CSplus 43 0.367804 1 79.661017 1
pavlovian_learning 06 one 86 CSplus 44 0.306408 1 79.661017 2
pavlovian_learning 06 one 87 CSplus 45 0.350694 1 79.661017 3
pavlovian_learning 06 one 88 CSminus 43 0.751787 1 50.000000 1
pavlovian_learning 06 one 89 CSminus 44 0.338114 1 50.000000 2
pavlovian_learning 06 one 90 CSminus 45 0.313068 1 50.000000 3
pavlovian_learning 06 one 91 CSplus 46 0.285628 1 79.661017 1
pavlovian_learning 06 one 92 CSplus 47 0.330684 1 79.661017 2
pavlovian_learning 06 one 93 CSplus 48 0.354502 1 79.661017 3
pavlovian_learning 06 one 94 CSminus 46 0.423078 1 50.000000 1
pavlovian_learning 06 one 95 CSminus 47 0.370612 1 50.000000 2
pavlovian_learning 06 one 96 CSminus 48 0.347291 1 50.000000 3
pavlovian_learning 06 one 97 CSplus 49 0.592404 1 79.661017 1
pavlovian_learning 06 one 98 CSplus 50 0.320150 1 79.661017 2
pavlovian_learning 06 one 99 CSplus 51 0.334575 1 79.661017 3
pavlovian_learning 06 one 100 CSminus 49 0.343927 1 50.000000 1
pavlovian_learning 06 one 101 CSminus 50 0.340200 1 50.000000 2
pavlovian_learning 06 one 102 CSminus 51 0.325057 1 50.000000 3
pavlovian_learning 06 one 103 CSplus 52 0.398403 1 79.661017 1
pavlovian_learning 06 one 104 CSplus 53 0.334294 1 79.661017 2
pavlovian_learning 06 one 105 CSplus 54 0.376787 1 79.661017 3
pavlovian_learning 06 one 106 CSminus 52 0.388627 1 50.000000 1
pavlovian_learning 06 one 107 CSminus 53 0.544360 1 50.000000 2
pavlovian_learning 06 one 108 CSminus 54 0.442080 1 50.000000 3
pavlovian_learning 06 one 109 Baseline 0 NaN NaN 29.661017 NaN
pavlovian_learning 07 one 1 CSplus 1 0.976488 1 66.949153 1
pavlovian_learning 07 one 2 CSplus 2 0.611081 1 66.949153 2
pavlovian_learning 07 one 3 CSplus 3 0.344077 1 66.949153 3
pavlovian_learning 07 one 4 CSminus 1 0.787671 1 56.779661 1
pavlovian_learning 07 one 5 CSminus 2 0.814964 1 56.779661 2
pavlovian_learning 07 one 6 CSminus 3 0.615207 1 56.779661 3
pavlovian_learning 07 one 7 CSplus 4 0.417614 1 66.949153 1
pavlovian_learning 07 one 8 CSplus 5 0.607666 1 66.949153 2
pavlovian_learning 07 one 9 CSplus 6 0.500004 1 66.949153 3
pavlovian_learning 07 one 10 CSminus 4 0.458892 1 56.779661 1
pavlovian_learning 07 one 11 CSminus 5 0.613435 1 56.779661 2
pavlovian_learning 07 one 12 CSminus 6 0.609106 1 56.779661 3
pavlovian_learning 07 one 13 CSplus 7 0.438218 1 66.949153 1
pavlovian_learning 07 one 14 CSplus 8 0.580627 1 66.949153 2
pavlovian_learning 07 one 15 CSplus 9 0.517732 1 66.949153 3
pavlovian_learning 07 one 16 CSminus 7 0.693157 1 56.779661 1
pavlovian_learning 07 one 17 CSminus 8 0.790486 1 56.779661 2
pavlovian_learning 07 one 18 CSminus 9 1.000000 0 56.779661 3
pavlovian_learning 07 one 19 CSplus 10 0.362249 1 66.949153 1
pavlovian_learning 07 one 20 CSplus 11 0.541152 1 66.949153 2
pavlovian_learning 07 one 21 CSplus 12 0.525137 1 66.949153 3
pavlovian_learning 07 one 22 CSminus 10 0.628377 1 56.779661 1
pavlovian_learning 07 one 23 CSminus 11 0.539601 1 56.779661 2
pavlovian_learning 07 one 24 CSminus 12 0.880044 1 56.779661 3
pavlovian_learning 07 one 25 CSplus 13 0.507735 1 66.949153 1
pavlovian_learning 07 one 26 CSplus 14 0.521153 1 66.949153 2
pavlovian_learning 07 one 27 CSplus 15 0.474568 1 66.949153 3
pavlovian_learning 07 one 28 CSminus 13 0.497070 1 56.779661 1
pavlovian_learning 07 one 29 CSminus 14 0.447710 1 56.779661 2
pavlovian_learning 07 one 30 CSminus 15 0.722455 1 56.779661 3
pavlovian_learning 07 one 31 CSplus 16 0.528965 1 66.949153 1
pavlovian_learning 07 one 32 CSplus 17 1.000000 0 66.949153 2
pavlovian_learning 07 one 33 CSplus 18 0.440636 1 66.949153 3
pavlovian_learning 07 one 34 CSminus 16 0.533247 1 56.779661 1
pavlovian_learning 07 one 35 CSminus 17 0.391571 1 56.779661 2
pavlovian_learning 07 one 36 CSminus 18 0.567748 1 56.779661 3
pavlovian_learning 07 one 37 CSplus 19 0.596993 1 66.949153 1
pavlovian_learning 07 one 38 CSplus 20 0.550420 1 66.949153 2
pavlovian_learning 07 one 39 CSplus 21 0.525941 1 66.949153 3
pavlovian_learning 07 one 40 CSminus 19 0.615075 1 56.779661 1
pavlovian_learning 07 one 41 CSminus 20 0.674862 1 56.779661 2
pavlovian_learning 07 one 42 CSminus 21 0.720245 1 56.779661 3
pavlovian_learning 07 one 43 CSplus 22 1.000000 0 66.949153 1
pavlovian_learning 07 one 44 CSplus 23 0.420803 1 66.949153 2
pavlovian_learning 07 one 45 CSplus 24 0.436027 1 66.949153 3
pavlovian_learning 07 one 46 CSminus 22 0.338568 1 56.779661 1
pavlovian_learning 07 one 47 CSminus 23 0.394782 1 56.779661 2
pavlovian_learning 07 one 48 CSminus 24 0.537949 1 56.779661 3
pavlovian_learning 07 one 49 CSplus 25 0.409961 1 66.949153 1
pavlovian_learning 07 one 50 CSplus 26 0.385961 1 66.949153 2
pavlovian_learning 07 one 51 CSplus 27 0.465218 1 66.949153 3
pavlovian_learning 07 one 52 CSminus 25 0.788661 1 56.779661 1
pavlovian_learning 07 one 53 CSminus 26 0.434427 1 56.779661 2
pavlovian_learning 07 one 54 CSminus 27 1.000000 0 56.779661 3
pavlovian_learning 07 one 55 CSplus 28 0.446668 1 66.949153 1
pavlovian_learning 07 one 56 CSplus 29 0.494022 1 66.949153 2
pavlovian_learning 07 one 57 CSplus 30 0.430749 1 66.949153 3
pavlovian_learning 07 one 58 CSminus 28 0.519364 1 56.779661 1
pavlovian_learning 07 one 59 CSminus 29 0.411295 1 56.779661 2
pavlovian_learning 07 one 60 CSminus 30 0.383608 1 56.779661 3
pavlovian_learning 07 one 61 CSplus 31 0.567168 1 66.949153 1
pavlovian_learning 07 one 62 CSplus 32 0.768501 1 66.949153 2
pavlovian_learning 07 one 63 CSplus 33 0.607596 1 66.949153 3
pavlovian_learning 07 one 64 CSminus 31 0.633245 1 56.779661 1
pavlovian_learning 07 one 65 CSminus 32 0.503393 1 56.779661 2
pavlovian_learning 07 one 66 CSminus 33 0.415813 1 56.779661 3
pavlovian_learning 07 one 67 CSplus 34 0.396648 1 66.949153 1
pavlovian_learning 07 one 68 CSplus 35 0.460823 1 66.949153 2
pavlovian_learning 07 one 69 CSplus 36 0.895164 1 66.949153 3
pavlovian_learning 07 one 70 CSminus 34 0.350307 1 56.779661 1
pavlovian_learning 07 one 71 CSminus 35 0.565821 1 56.779661 2
pavlovian_learning 07 one 72 CSminus 36 0.521929 1 56.779661 3
pavlovian_learning 07 one 73 CSplus 37 0.418816 1 66.949153 1
pavlovian_learning 07 one 74 CSplus 38 0.399717 1 66.949153 2
pavlovian_learning 07 one 75 CSplus 39 0.660279 1 66.949153 3
pavlovian_learning 07 one 76 CSminus 37 0.409513 1 56.779661 1
pavlovian_learning 07 one 77 CSminus 38 0.524166 1 56.779661 2
pavlovian_learning 07 one 78 CSminus 39 0.650343 1 56.779661 3
pavlovian_learning 07 one 79 CSplus 40 0.443298 1 66.949153 1
pavlovian_learning 07 one 80 CSplus 41 0.544778 1 66.949153 2
pavlovian_learning 07 one 81 CSplus 42 0.593143 1 66.949153 3
pavlovian_learning 07 one 82 CSminus 40 0.862046 1 56.779661 1
pavlovian_learning 07 one 83 CSminus 41 0.487036 1 56.779661 2
pavlovian_learning 07 one 84 CSminus 42 0.718220 1 56.779661 3
pavlovian_learning 07 one 85 CSplus 43 0.389379 1 66.949153 1
pavlovian_learning 07 one 86 CSplus 44 0.649598 1 66.949153 2
pavlovian_learning 07 one 87 CSplus 45 0.386690 1 66.949153 3
pavlovian_learning 07 one 88 CSminus 43 0.410765 1 56.779661 1
pavlovian_learning 07 one 89 CSminus 44 0.396958 1 56.779661 2
pavlovian_learning 07 one 90 CSminus 45 0.427360 1 56.779661 3
pavlovian_learning 07 one 91 CSplus 46 0.387175 1 66.949153 1
pavlovian_learning 07 one 92 CSplus 47 0.349062 1 66.949153 2
pavlovian_learning 07 one 93 CSplus 48 0.431620 1 66.949153 3
pavlovian_learning 07 one 94 CSminus 46 1.000000 0 56.779661 1
pavlovian_learning 07 one 95 CSminus 47 0.690847 1 56.779661 2
pavlovian_learning 07 one 96 CSminus 48 0.406067 1 56.779661 3
pavlovian_learning 07 one 97 CSplus 49 0.113007 1 66.949153 1
pavlovian_learning 07 one 98 CSplus 50 0.574480 1 66.949153 2
pavlovian_learning 07 one 99 CSplus 51 0.444823 1 66.949153 3
pavlovian_learning 07 one 100 CSminus 49 0.355494 1 56.779661 1
pavlovian_learning 07 one 101 CSminus 50 0.595752 1 56.779661 2
pavlovian_learning 07 one 102 CSminus 51 0.435135 1 56.779661 3
pavlovian_learning 07 one 103 CSplus 52 0.514004 1 66.949153 1
pavlovian_learning 07 one 104 CSplus 53 0.406171 1 66.949153 2
pavlovian_learning 07 one 105 CSplus 54 0.686038 1 66.949153 3
pavlovian_learning 07 one 106 CSminus 52 0.416394 1 56.779661 1
pavlovian_learning 07 one 107 CSminus 53 0.728910 1 56.779661 2
pavlovian_learning 07 one 108 CSminus 54 0.518502 1 56.779661 3
pavlovian_learning 07 one 109 Baseline 0 NaN NaN 50.000000 NaN
pavlovian_learning 08 one 1 CSplus 1 0.524801 1 74.576271 1
pavlovian_learning 08 one 2 CSplus 2 0.394953 1 74.576271 2
pavlovian_learning 08 one 3 CSplus 3 0.361636 1 74.576271 3
pavlovian_learning 08 one 4 CSminus 1 0.593957 1 60.169492 1
pavlovian_learning 08 one 5 CSminus 2 0.452534 1 60.169492 2
pavlovian_learning 08 one 6 CSminus 3 0.807036 1 60.169492 3
pavlovian_learning 08 one 7 CSplus 4 0.462486 1 74.576271 1
pavlovian_learning 08 one 8 CSplus 5 0.473184 1 74.576271 2
pavlovian_learning 08 one 9 CSplus 6 0.484150 1 74.576271 3
pavlovian_learning 08 one 10 CSminus 4 0.674773 1 60.169492 1
pavlovian_learning 08 one 11 CSminus 5 0.464847 1 60.169492 2
pavlovian_learning 08 one 12 CSminus 6 0.348181 1 60.169492 3
pavlovian_learning 08 one 13 CSplus 7 0.382757 1 74.576271 1
pavlovian_learning 08 one 14 CSplus 8 0.785564 1 74.576271 2
pavlovian_learning 08 one 15 CSplus 9 0.453994 1 74.576271 3
pavlovian_learning 08 one 16 CSminus 7 0.434137 1 60.169492 1
pavlovian_learning 08 one 17 CSminus 8 0.347000 1 60.169492 2
pavlovian_learning 08 one 18 CSminus 9 0.324595 1 60.169492 3
pavlovian_learning 08 one 19 CSplus 10 0.347126 1 74.576271 1
pavlovian_learning 08 one 20 CSplus 11 0.425734 1 74.576271 2
pavlovian_learning 08 one 21 CSplus 12 0.308450 1 74.576271 3
pavlovian_learning 08 one 22 CSminus 10 0.512690 1 60.169492 1
pavlovian_learning 08 one 23 CSminus 11 0.452042 1 60.169492 2
pavlovian_learning 08 one 24 CSminus 12 0.455647 1 60.169492 3
pavlovian_learning 08 one 25 CSplus 13 0.395256 1 74.576271 1
pavlovian_learning 08 one 26 CSplus 14 0.385694 1 74.576271 2
pavlovian_learning 08 one 27 CSplus 15 0.421735 1 74.576271 3
pavlovian_learning 08 one 28 CSminus 13 0.374601 1 60.169492 1
pavlovian_learning 08 one 29 CSminus 14 0.367182 1 60.169492 2
pavlovian_learning 08 one 30 CSminus 15 0.379788 1 60.169492 3
pavlovian_learning 08 one 31 CSplus 16 0.317050 1 74.576271 1
pavlovian_learning 08 one 32 CSplus 17 0.361843 1 74.576271 2
pavlovian_learning 08 one 33 CSplus 18 0.333067 1 74.576271 3
pavlovian_learning 08 one 34 CSminus 16 0.502216 1 60.169492 1
pavlovian_learning 08 one 35 CSminus 17 0.390604 1 60.169492 2
pavlovian_learning 08 one 36 CSminus 18 0.385501 1 60.169492 3
pavlovian_learning 08 one 37 CSplus 19 0.341209 1 74.576271 1
pavlovian_learning 08 one 38 CSplus 20 0.395127 1 74.576271 2
pavlovian_learning 08 one 39 CSplus 21 0.390629 1 74.576271 3
pavlovian_learning 08 one 40 CSminus 19 0.348953 1 60.169492 1
pavlovian_learning 08 one 41 CSminus 20 0.388530 1 60.169492 2
pavlovian_learning 08 one 42 CSminus 21 0.295712 1 60.169492 3
pavlovian_learning 08 one 43 CSplus 22 0.314082 1 74.576271 1
pavlovian_learning 08 one 44 CSplus 23 0.462174 1 74.576271 2
pavlovian_learning 08 one 45 CSplus 24 0.375173 1 74.576271 3
pavlovian_learning 08 one 46 CSminus 22 0.432183 1 60.169492 1
pavlovian_learning 08 one 47 CSminus 23 0.385916 1 60.169492 2
pavlovian_learning 08 one 48 CSminus 24 0.309041 1 60.169492 3
pavlovian_learning 08 one 49 CSplus 25 0.298274 1 74.576271 1
pavlovian_learning 08 one 50 CSplus 26 0.398606 1 74.576271 2
pavlovian_learning 08 one 51 CSplus 27 0.321531 1 74.576271 3
pavlovian_learning 08 one 52 CSminus 25 0.501094 1 60.169492 1
pavlovian_learning 08 one 53 CSminus 26 0.385052 1 60.169492 2
pavlovian_learning 08 one 54 CSminus 27 0.375752 1 60.169492 3
pavlovian_learning 08 one 55 CSplus 28 0.312204 1 74.576271 1
pavlovian_learning 08 one 56 CSplus 29 0.362629 1 74.576271 2
pavlovian_learning 08 one 57 CSplus 30 0.295866 1 74.576271 3
pavlovian_learning 08 one 58 CSminus 28 0.366392 1 60.169492 1
pavlovian_learning 08 one 59 CSminus 29 0.384878 1 60.169492 2
pavlovian_learning 08 one 60 CSminus 30 0.383675 1 60.169492 3
pavlovian_learning 08 one 61 CSplus 31 0.287158 1 74.576271 1
pavlovian_learning 08 one 62 CSplus 32 0.296026 1 74.576271 2
pavlovian_learning 08 one 63 CSplus 33 0.574439 1 74.576271 3
pavlovian_learning 08 one 64 CSminus 31 0.306686 1 60.169492 1
pavlovian_learning 08 one 65 CSminus 32 0.360596 1 60.169492 2
pavlovian_learning 08 one 66 CSminus 33 0.343395 1 60.169492 3
pavlovian_learning 08 one 67 CSplus 34 0.327091 1 74.576271 1
pavlovian_learning 08 one 68 CSplus 35 0.379867 1 74.576271 2
pavlovian_learning 08 one 69 CSplus 36 0.299328 1 74.576271 3
pavlovian_learning 08 one 70 CSminus 34 0.381240 1 60.169492 1
pavlovian_learning 08 one 71 CSminus 35 0.404659 1 60.169492 2
pavlovian_learning 08 one 72 CSminus 36 0.318813 1 60.169492 3
pavlovian_learning 08 one 73 CSplus 37 0.364739 1 74.576271 1
pavlovian_learning 08 one 74 CSplus 38 0.332461 1 74.576271 2
pavlovian_learning 08 one 75 CSplus 39 0.341701 1 74.576271 3
pavlovian_learning 08 one 76 CSminus 37 0.349413 1 60.169492 1
pavlovian_learning 08 one 77 CSminus 38 0.367459 1 60.169492 2
pavlovian_learning 08 one 78 CSminus 39 0.382571 1 60.169492 3
pavlovian_learning 08 one 79 CSplus 40 0.477199 1 74.576271 1
pavlovian_learning 08 one 80 CSplus 41 0.315095 1 74.576271 2
pavlovian_learning 08 one 81 CSplus 42 0.317887 1 74.576271 3
pavlovian_learning 08 one 82 CSminus 40 0.369814 1 60.169492 1
pavlovian_learning 08 one 83 CSminus 41 0.346000 1 60.169492 2
pavlovian_learning 08 one 84 CSminus 42 0.504396 1 60.169492 3
pavlovian_learning 08 one 85 CSplus 43 0.302750 1 74.576271 1
pavlovian_learning 08 one 86 CSplus 44 0.514042 1 74.576271 2
pavlovian_learning 08 one 87 CSplus 45 0.444752 1 74.576271 3
pavlovian_learning 08 one 88 CSminus 43 0.446193 1 60.169492 1
pavlovian_learning 08 one 89 CSminus 44 0.355077 1 60.169492 2
pavlovian_learning 08 one 90 CSminus 45 0.351054 1 60.169492 3
pavlovian_learning 08 one 91 CSplus 46 0.387490 1 74.576271 1
pavlovian_learning 08 one 92 CSplus 47 0.337696 1 74.576271 2
pavlovian_learning 08 one 93 CSplus 48 0.423259 1 74.576271 3
pavlovian_learning 08 one 94 CSminus 46 0.369803 1 60.169492 1
pavlovian_learning 08 one 95 CSminus 47 0.383120 1 60.169492 2
pavlovian_learning 08 one 96 CSminus 48 0.419485 1 60.169492 3
pavlovian_learning 08 one 97 CSplus 49 0.315156 1 74.576271 1
pavlovian_learning 08 one 98 CSplus 50 0.319787 1 74.576271 2
pavlovian_learning 08 one 99 CSplus 51 0.937433 1 74.576271 3
pavlovian_learning 08 one 100 CSminus 49 0.430541 1 60.169492 1
pavlovian_learning 08 one 101 CSminus 50 0.434188 1 60.169492 2
pavlovian_learning 08 one 102 CSminus 51 0.322324 1 60.169492 3
pavlovian_learning 08 one 103 CSplus 52 0.497522 1 74.576271 1
pavlovian_learning 08 one 104 CSplus 53 0.349371 1 74.576271 2
pavlovian_learning 08 one 105 CSplus 54 1.000000 0 74.576271 3
pavlovian_learning 08 one 106 CSminus 52 0.326304 1 60.169492 1
pavlovian_learning 08 one 107 CSminus 53 0.376723 1 60.169492 2
pavlovian_learning 08 one 108 CSminus 54 0.331552 1 60.169492 3
pavlovian_learning 08 one 109 Baseline 0 NaN NaN 35.593220 NaN
pavlovian_learning 09 one 1 CSplus 1 0.437846 1 66.101695 1
pavlovian_learning 09 one 2 CSplus 2 0.299749 1 66.101695 2
pavlovian_learning 09 one 3 CSplus 3 0.423449 1 66.101695 3
pavlovian_learning 09 one 4 CSminus 1 0.384502 1 78.813559 1
pavlovian_learning 09 one 5 CSminus 2 0.283889 1 78.813559 2
pavlovian_learning 09 one 6 CSminus 3 0.298476 1 78.813559 3
pavlovian_learning 09 one 7 CSplus 4 0.322825 1 66.101695 1
pavlovian_learning 09 one 8 CSplus 5 0.358367 1 66.101695 2
pavlovian_learning 09 one 9 CSplus 6 0.474363 1 66.101695 3
pavlovian_learning 09 one 10 CSminus 4 0.300388 1 78.813559 1
pavlovian_learning 09 one 11 CSminus 5 0.466616 1 78.813559 2
pavlovian_learning 09 one 12 CSminus 6 0.295761 1 78.813559 3
pavlovian_learning 09 one 13 CSplus 7 0.279728 1 66.101695 1
pavlovian_learning 09 one 14 CSplus 8 0.464030 1 66.101695 2
pavlovian_learning 09 one 15 CSplus 9 0.489676 1 66.101695 3
pavlovian_learning 09 one 16 CSminus 7 0.309017 1 78.813559 1
pavlovian_learning 09 one 17 CSminus 8 0.486853 1 78.813559 2
pavlovian_learning 09 one 18 CSminus 9 0.268477 1 78.813559 3
pavlovian_learning 09 one 19 CSplus 10 0.288047 1 66.101695 1
pavlovian_learning 09 one 20 CSplus 11 0.405874 1 66.101695 2
pavlovian_learning 09 one 21 CSplus 12 0.337650 1 66.101695 3
pavlovian_learning 09 one 22 CSminus 10 0.288889 1 78.813559 1
pavlovian_learning 09 one 23 CSminus 11 0.291660 1 78.813559 2
pavlovian_learning 09 one 24 CSminus 12 0.285577 1 78.813559 3
pavlovian_learning 09 one 25 CSplus 13 0.424454 1 66.101695 1
pavlovian_learning 09 one 26 CSplus 14 0.389304 1 66.101695 2
pavlovian_learning 09 one 27 CSplus 15 0.441007 1 66.101695 3
pavlovian_learning 09 one 28 CSminus 13 0.309854 1 78.813559 1
pavlovian_learning 09 one 29 CSminus 14 0.351654 1 78.813559 2
pavlovian_learning 09 one 30 CSminus 15 0.273535 1 78.813559 3
pavlovian_learning 09 one 31 CSplus 16 0.748114 1 66.101695 1
pavlovian_learning 09 one 32 CSplus 17 0.324221 1 66.101695 2
pavlovian_learning 09 one 33 CSplus 18 0.378261 1 66.101695 3
pavlovian_learning 09 one 34 CSminus 16 0.380791 1 78.813559 1
pavlovian_learning 09 one 35 CSminus 17 0.375304 1 78.813559 2
pavlovian_learning 09 one 36 CSminus 18 0.240294 1 78.813559 3
pavlovian_learning 09 one 37 CSplus 19 0.415985 1 66.101695 1
pavlovian_learning 09 one 38 CSplus 20 0.269882 1 66.101695 2
pavlovian_learning 09 one 39 CSplus 21 0.277123 1 66.101695 3
pavlovian_learning 09 one 40 CSminus 19 0.370493 1 78.813559 1
pavlovian_learning 09 one 41 CSminus 20 0.427298 1 78.813559 2
pavlovian_learning 09 one 42 CSminus 21 0.579497 1 78.813559 3
pavlovian_learning 09 one 43 CSplus 22 0.298574 1 66.101695 1
pavlovian_learning 09 one 44 CSplus 23 0.547856 1 66.101695 2
pavlovian_learning 09 one 45 CSplus 24 0.280409 1 66.101695 3
pavlovian_learning 09 one 46 CSminus 22 0.170866 1 78.813559 1
pavlovian_learning 09 one 47 CSminus 23 0.122772 1 78.813559 2
pavlovian_learning 09 one 48 CSminus 24 0.293010 1 78.813559 3
pavlovian_learning 09 one 49 CSplus 25 0.358226 1 66.101695 1
pavlovian_learning 09 one 50 CSplus 26 0.282905 1 66.101695 2
pavlovian_learning 09 one 51 CSplus 27 0.344789 1 66.101695 3
pavlovian_learning 09 one 52 CSminus 25 0.286463 1 78.813559 1
pavlovian_learning 09 one 53 CSminus 26 0.428191 1 78.813559 2
pavlovian_learning 09 one 54 CSminus 27 0.251920 1 78.813559 3
pavlovian_learning 09 one 55 CSplus 28 0.289430 1 66.101695 1
pavlovian_learning 09 one 56 CSplus 29 0.349266 1 66.101695 2
pavlovian_learning 09 one 57 CSplus 30 0.272105 1 66.101695 3
pavlovian_learning 09 one 58 CSminus 28 0.006367 1 78.813559 1
pavlovian_learning 09 one 59 CSminus 29 0.288301 1 78.813559 2
pavlovian_learning 09 one 60 CSminus 30 0.268584 1 78.813559 3
pavlovian_learning 09 one 61 CSplus 31 0.379760 1 66.101695 1
pavlovian_learning 09 one 62 CSplus 32 0.321418 1 66.101695 2
pavlovian_learning 09 one 63 CSplus 33 0.536244 1 66.101695 3
pavlovian_learning 09 one 64 CSminus 31 0.328264 1 78.813559 1
pavlovian_learning 09 one 65 CSminus 32 0.304978 1 78.813559 2
pavlovian_learning 09 one 66 CSminus 33 0.347020 1 78.813559 3
pavlovian_learning 09 one 67 CSplus 34 0.263099 1 66.101695 1
pavlovian_learning 09 one 68 CSplus 35 0.387264 1 66.101695 2
pavlovian_learning 09 one 69 CSplus 36 0.310631 1 66.101695 3
pavlovian_learning 09 one 70 CSminus 34 0.306077 1 78.813559 1
pavlovian_learning 09 one 71 CSminus 35 0.276902 1 78.813559 2
pavlovian_learning 09 one 72 CSminus 36 0.237469 1 78.813559 3
pavlovian_learning 09 one 73 CSplus 37 0.339140 1 66.101695 1
pavlovian_learning 09 one 74 CSplus 38 0.286940 1 66.101695 2
pavlovian_learning 09 one 75 CSplus 39 0.402902 1 66.101695 3
pavlovian_learning 09 one 76 CSminus 37 0.307086 1 78.813559 1
pavlovian_learning 09 one 77 CSminus 38 0.449290 1 78.813559 2
pavlovian_learning 09 one 78 CSminus 39 0.316922 1 78.813559 3
pavlovian_learning 09 one 79 CSplus 40 0.289373 1 66.101695 1
pavlovian_learning 09 one 80 CSplus 41 0.331289 1 66.101695 2
pavlovian_learning 09 one 81 CSplus 42 0.289596 1 66.101695 3
pavlovian_learning 09 one 82 CSminus 40 0.271106 1 78.813559 1
pavlovian_learning 09 one 83 CSminus 41 0.288218 1 78.813559 2
pavlovian_learning 09 one 84 CSminus 42 0.240042 1 78.813559 3
pavlovian_learning 09 one 85 CSplus 43 0.283326 1 66.101695 1
pavlovian_learning 09 one 86 CSplus 44 0.253149 1 66.101695 2
pavlovian_learning 09 one 87 CSplus 45 0.329998 1 66.101695 3
pavlovian_learning 09 one 88 CSminus 43 0.882701 1 78.813559 1
pavlovian_learning 09 one 89 CSminus 44 0.454226 1 78.813559 2
pavlovian_learning 09 one 90 CSminus 45 0.250904 1 78.813559 3
pavlovian_learning 09 one 91 CSplus 46 0.317822 1 66.101695 1
pavlovian_learning 09 one 92 CSplus 47 0.349015 1 66.101695 2
pavlovian_learning 09 one 93 CSplus 48 0.310614 1 66.101695 3
pavlovian_learning 09 one 94 CSminus 46 0.390630 1 78.813559 1
pavlovian_learning 09 one 95 CSminus 47 0.254416 1 78.813559 2
pavlovian_learning 09 one 96 CSminus 48 0.349749 1 78.813559 3
pavlovian_learning 09 one 97 CSplus 49 0.298539 1 66.101695 1
pavlovian_learning 09 one 98 CSplus 50 0.346919 1 66.101695 2
pavlovian_learning 09 one 99 CSplus 51 0.379620 1 66.101695 3
pavlovian_learning 09 one 100 CSminus 49 0.313370 1 78.813559 1
pavlovian_learning 09 one 101 CSminus 50 0.318538 1 78.813559 2
pavlovian_learning 09 one 102 CSminus 51 0.219302 1 78.813559 3
pavlovian_learning 09 one 103 CSplus 52 0.307687 1 66.101695 1
pavlovian_learning 09 one 104 CSplus 53 0.314409 1 66.101695 2
pavlovian_learning 09 one 105 CSplus 54 0.314267 1 66.101695 3
pavlovian_learning 09 one 106 CSminus 52 0.418221 1 78.813559 1
pavlovian_learning 09 one 107 CSminus 53 0.259757 1 78.813559 2
pavlovian_learning 09 one 108 CSminus 54 0.298973 1 78.813559 3
pavlovian_learning 09 one 109 Baseline 0 NaN NaN 28.813559 NaN
pavlovian_learning 10 one 1 CSplus 1 0.458038 1 36.440678 1
pavlovian_learning 10 one 2 CSplus 2 0.348163 1 36.440678 2
pavlovian_learning 10 one 3 CSplus 3 0.305674 1 36.440678 3
pavlovian_learning 10 one 4 CSminus 1 0.323737 1 68.644068 1
pavlovian_learning 10 one 5 CSminus 2 0.290483 1 68.644068 2
pavlovian_learning 10 one 6 CSminus 3 0.289109 1 68.644068 3
pavlovian_learning 10 one 7 CSplus 4 0.326971 1 36.440678 1
pavlovian_learning 10 one 8 CSplus 5 0.296596 1 36.440678 2
pavlovian_learning 10 one 9 CSplus 6 0.291199 1 36.440678 3
pavlovian_learning 10 one 10 CSminus 4 0.422341 1 68.644068 1
pavlovian_learning 10 one 11 CSminus 5 0.284394 1 68.644068 2
pavlovian_learning 10 one 12 CSminus 6 0.339057 1 68.644068 3
pavlovian_learning 10 one 13 CSplus 7 0.293632 1 36.440678 1
pavlovian_learning 10 one 14 CSplus 8 0.333072 1 36.440678 2
pavlovian_learning 10 one 15 CSplus 9 0.341347 1 36.440678 3
pavlovian_learning 10 one 16 CSminus 7 0.286514 1 68.644068 1
pavlovian_learning 10 one 17 CSminus 8 0.285473 1 68.644068 2
pavlovian_learning 10 one 18 CSminus 9 0.295688 1 68.644068 3
pavlovian_learning 10 one 19 CSplus 10 0.323101 1 36.440678 1
pavlovian_learning 10 one 20 CSplus 11 0.309384 1 36.440678 2
pavlovian_learning 10 one 21 CSplus 12 0.391625 1 36.440678 3
pavlovian_learning 10 one 22 CSminus 10 0.342344 1 68.644068 1
pavlovian_learning 10 one 23 CSminus 11 0.293282 1 68.644068 2
pavlovian_learning 10 one 24 CSminus 12 0.288694 1 68.644068 3
pavlovian_learning 10 one 25 CSplus 13 0.315095 1 36.440678 1
pavlovian_learning 10 one 26 CSplus 14 0.290622 1 36.440678 2
pavlovian_learning 10 one 27 CSplus 15 0.304388 1 36.440678 3
pavlovian_learning 10 one 28 CSminus 13 0.398182 1 68.644068 1
pavlovian_learning 10 one 29 CSminus 14 0.280227 1 68.644068 2
pavlovian_learning 10 one 30 CSminus 15 0.250645 1 68.644068 3
pavlovian_learning 10 one 31 CSplus 16 0.131344 1 36.440678 1
pavlovian_learning 10 one 32 CSplus 17 0.331722 1 36.440678 2
pavlovian_learning 10 one 33 CSplus 18 0.275497 1 36.440678 3
pavlovian_learning 10 one 34 CSminus 16 0.339630 1 68.644068 1
pavlovian_learning 10 one 35 CSminus 17 0.296691 1 68.644068 2
pavlovian_learning 10 one 36 CSminus 18 0.267697 1 68.644068 3
pavlovian_learning 10 one 37 CSplus 19 0.288953 1 36.440678 1
pavlovian_learning 10 one 38 CSplus 20 0.299147 1 36.440678 2
pavlovian_learning 10 one 39 CSplus 21 0.275908 1 36.440678 3
pavlovian_learning 10 one 40 CSminus 19 0.115218 1 68.644068 1
pavlovian_learning 10 one 41 CSminus 20 0.246452 1 68.644068 2
pavlovian_learning 10 one 42 CSminus 21 0.246362 1 68.644068 3
pavlovian_learning 10 one 43 CSplus 22 0.412756 1 36.440678 1
pavlovian_learning 10 one 44 CSplus 23 0.359973 1 36.440678 2
pavlovian_learning 10 one 45 CSplus 24 0.289523 1 36.440678 3
pavlovian_learning 10 one 46 CSminus 22 0.262886 1 68.644068 1
pavlovian_learning 10 one 47 CSminus 23 0.254124 1 68.644068 2
pavlovian_learning 10 one 48 CSminus 24 0.275073 1 68.644068 3
pavlovian_learning 10 one 49 CSplus 25 0.284306 1 36.440678 1
pavlovian_learning 10 one 50 CSplus 26 0.313016 1 36.440678 2
pavlovian_learning 10 one 51 CSplus 27 0.294835 1 36.440678 3
pavlovian_learning 10 one 52 CSminus 25 0.283614 1 68.644068 1
pavlovian_learning 10 one 53 CSminus 26 0.260730 1 68.644068 2
pavlovian_learning 10 one 54 CSminus 27 0.337154 1 68.644068 3
pavlovian_learning 10 one 55 CSplus 28 0.274402 1 36.440678 1
pavlovian_learning 10 one 56 CSplus 29 0.285160 1 36.440678 2
pavlovian_learning 10 one 57 CSplus 30 0.426198 1 36.440678 3
pavlovian_learning 10 one 58 CSminus 28 0.265102 1 68.644068 1
pavlovian_learning 10 one 59 CSminus 29 0.302509 1 68.644068 2
pavlovian_learning 10 one 60 CSminus 30 0.268656 1 68.644068 3
pavlovian_learning 10 one 61 CSplus 31 0.328546 1 36.440678 1
pavlovian_learning 10 one 62 CSplus 32 0.341109 1 36.440678 2
pavlovian_learning 10 one 63 CSplus 33 0.442679 1 36.440678 3
pavlovian_learning 10 one 64 CSminus 31 0.313044 1 68.644068 1
pavlovian_learning 10 one 65 CSminus 32 0.281381 1 68.644068 2
pavlovian_learning 10 one 66 CSminus 33 0.273107 1 68.644068 3
pavlovian_learning 10 one 67 CSplus 34 0.339912 1 36.440678 1
pavlovian_learning 10 one 68 CSplus 35 0.280405 1 36.440678 2
pavlovian_learning 10 one 69 CSplus 36 0.342600 1 36.440678 3
pavlovian_learning 10 one 70 CSminus 34 0.253440 1 68.644068 1
pavlovian_learning 10 one 71 CSminus 35 0.251188 1 68.644068 2
pavlovian_learning 10 one 72 CSminus 36 0.275443 1 68.644068 3
pavlovian_learning 10 one 73 CSplus 37 0.146651 1 36.440678 1
pavlovian_learning 10 one 74 CSplus 38 0.234905 1 36.440678 2
pavlovian_learning 10 one 75 CSplus 39 0.292221 1 36.440678 3
pavlovian_learning 10 one 76 CSminus 37 0.260338 1 68.644068 1
pavlovian_learning 10 one 77 CSminus 38 0.285977 1 68.644068 2
pavlovian_learning 10 one 78 CSminus 39 0.249516 1 68.644068 3
pavlovian_learning 10 one 79 CSplus 40 0.306952 1 36.440678 1
pavlovian_learning 10 one 80 CSplus 41 0.397707 1 36.440678 2
pavlovian_learning 10 one 81 CSplus 42 0.264873 1 36.440678 3
pavlovian_learning 10 one 82 CSminus 40 0.274487 1 68.644068 1
pavlovian_learning 10 one 83 CSminus 41 0.277806 1 68.644068 2
pavlovian_learning 10 one 84 CSminus 42 0.278346 1 68.644068 3
pavlovian_learning 10 one 85 CSplus 43 0.324180 1 36.440678 1
pavlovian_learning 10 one 86 CSplus 44 0.324681 1 36.440678 2
pavlovian_learning 10 one 87 CSplus 45 0.278069 1 36.440678 3
pavlovian_learning 10 one 88 CSminus 43 0.338473 1 68.644068 1
pavlovian_learning 10 one 89 CSminus 44 0.248110 1 68.644068 2
pavlovian_learning 10 one 90 CSminus 45 0.281556 1 68.644068 3
pavlovian_learning 10 one 91 CSplus 46 0.293739 1 36.440678 1
pavlovian_learning 10 one 92 CSplus 47 0.301919 1 36.440678 2
pavlovian_learning 10 one 93 CSplus 48 0.267046 1 36.440678 3
pavlovian_learning 10 one 94 CSminus 46 0.278737 1 68.644068 1
pavlovian_learning 10 one 95 CSminus 47 0.334304 1 68.644068 2
pavlovian_learning 10 one 96 CSminus 48 0.323099 1 68.644068 3
pavlovian_learning 10 one 97 CSplus 49 0.296687 1 36.440678 1
pavlovian_learning 10 one 98 CSplus 50 0.352016 1 36.440678 2
pavlovian_learning 10 one 99 CSplus 51 0.403341 1 36.440678 3
pavlovian_learning 10 one 100 CSminus 49 0.266852 1 68.644068 1
pavlovian_learning 10 one 101 CSminus 50 0.263016 1 68.644068 2
pavlovian_learning 10 one 102 CSminus 51 0.342320 1 68.644068 3
pavlovian_learning 10 one 103 CSplus 52 0.296668 1 36.440678 1
pavlovian_learning 10 one 104 CSplus 53 0.294121 1 36.440678 2
pavlovian_learning 10 one 105 CSplus 54 0.268691 1 36.440678 3
pavlovian_learning 10 one 106 CSminus 52 0.251451 1 68.644068 1
pavlovian_learning 10 one 107 CSminus 53 0.327238 1 68.644068 2
pavlovian_learning 10 one 108 CSminus 54 0.279072 1 68.644068 3
pavlovian_learning 10 one 109 Baseline 0 NaN NaN 50.000000 NaN
pavlovian_learning 11 one 1 CSplus 1 0.377740 1 63.559322 1
pavlovian_learning 11 one 2 CSplus 2 0.389342 1 63.559322 2
pavlovian_learning 11 one 3 CSplus 3 0.323840 1 63.559322 3
pavlovian_learning 11 one 4 CSminus 1 0.333168 1 35.593220 1
pavlovian_learning 11 one 5 CSminus 2 0.397858 1 35.593220 2
pavlovian_learning 11 one 6 CSminus 3 0.352586 1 35.593220 3
pavlovian_learning 11 one 7 CSplus 4 0.418039 1 63.559322 1
pavlovian_learning 11 one 8 CSplus 5 0.277234 1 63.559322 2
pavlovian_learning 11 one 9 CSplus 6 0.329888 1 63.559322 3
pavlovian_learning 11 one 10 CSminus 4 0.364397 1 35.593220 1
pavlovian_learning 11 one 11 CSminus 5 0.291196 1 35.593220 2
pavlovian_learning 11 one 12 CSminus 6 0.289214 1 35.593220 3
pavlovian_learning 11 one 13 CSplus 7 0.373995 1 63.559322 1
pavlovian_learning 11 one 14 CSplus 8 0.374277 1 63.559322 2
pavlovian_learning 11 one 15 CSplus 9 0.257317 1 63.559322 3
pavlovian_learning 11 one 16 CSminus 7 0.327557 1 35.593220 1
pavlovian_learning 11 one 17 CSminus 8 0.272645 1 35.593220 2
pavlovian_learning 11 one 18 CSminus 9 0.276899 1 35.593220 3
pavlovian_learning 11 one 19 CSplus 10 0.353924 1 63.559322 1
pavlovian_learning 11 one 20 CSplus 11 0.318663 1 63.559322 2
pavlovian_learning 11 one 21 CSplus 12 0.357964 1 63.559322 3
pavlovian_learning 11 one 22 CSminus 10 0.342075 1 35.593220 1
pavlovian_learning 11 one 23 CSminus 11 0.343932 1 35.593220 2
pavlovian_learning 11 one 24 CSminus 12 0.327052 1 35.593220 3
pavlovian_learning 11 one 25 CSplus 13 0.340594 1 63.559322 1
pavlovian_learning 11 one 26 CSplus 14 0.290491 1 63.559322 2
pavlovian_learning 11 one 27 CSplus 15 0.319492 1 63.559322 3
pavlovian_learning 11 one 28 CSminus 13 0.450443 1 35.593220 1
pavlovian_learning 11 one 29 CSminus 14 0.637904 1 35.593220 2
pavlovian_learning 11 one 30 CSminus 15 0.294051 1 35.593220 3
pavlovian_learning 11 one 31 CSplus 16 0.461487 1 63.559322 1
pavlovian_learning 11 one 32 CSplus 17 0.317841 1 63.559322 2
pavlovian_learning 11 one 33 CSplus 18 0.287380 1 63.559322 3
pavlovian_learning 11 one 34 CSminus 16 0.349334 1 35.593220 1
pavlovian_learning 11 one 35 CSminus 17 0.321857 1 35.593220 2
pavlovian_learning 11 one 36 CSminus 18 0.403059 1 35.593220 3
pavlovian_learning 11 one 37 CSplus 19 0.347747 1 63.559322 1
pavlovian_learning 11 one 38 CSplus 20 0.300076 1 63.559322 2
pavlovian_learning 11 one 39 CSplus 21 0.394516 1 63.559322 3
pavlovian_learning 11 one 40 CSminus 19 0.383455 1 35.593220 1
pavlovian_learning 11 one 41 CSminus 20 0.294737 1 35.593220 2
pavlovian_learning 11 one 42 CSminus 21 0.420536 1 35.593220 3
pavlovian_learning 11 one 43 CSplus 22 0.400793 1 63.559322 1
pavlovian_learning 11 one 44 CSplus 23 0.298302 1 63.559322 2
pavlovian_learning 11 one 45 CSplus 24 0.299893 1 63.559322 3
pavlovian_learning 11 one 46 CSminus 22 0.336222 1 35.593220 1
pavlovian_learning 11 one 47 CSminus 23 0.443150 1 35.593220 2
pavlovian_learning 11 one 48 CSminus 24 0.378059 1 35.593220 3
pavlovian_learning 11 one 49 CSplus 25 0.346294 1 63.559322 1
pavlovian_learning 11 one 50 CSplus 26 0.438904 1 63.559322 2
pavlovian_learning 11 one 51 CSplus 27 1.000000 0 63.559322 3
pavlovian_learning 11 one 52 CSminus 25 0.341948 1 35.593220 1
pavlovian_learning 11 one 53 CSminus 26 0.304333 1 35.593220 2
pavlovian_learning 11 one 54 CSminus 27 0.354394 1 35.593220 3
pavlovian_learning 11 one 55 CSplus 28 0.354274 1 63.559322 1
pavlovian_learning 11 one 56 CSplus 29 0.357524 1 63.559322 2
pavlovian_learning 11 one 57 CSplus 30 0.349414 1 63.559322 3
pavlovian_learning 11 one 58 CSminus 28 0.329453 1 35.593220 1
pavlovian_learning 11 one 59 CSminus 29 0.357789 1 35.593220 2
pavlovian_learning 11 one 60 CSminus 30 0.381395 1 35.593220 3
pavlovian_learning 11 one 61 CSplus 31 0.389228 1 63.559322 1
pavlovian_learning 11 one 62 CSplus 32 0.633230 1 63.559322 2
pavlovian_learning 11 one 63 CSplus 33 0.540672 1 63.559322 3
pavlovian_learning 11 one 64 CSminus 31 0.316145 1 35.593220 1
pavlovian_learning 11 one 65 CSminus 32 0.298610 1 35.593220 2
pavlovian_learning 11 one 66 CSminus 33 0.409782 1 35.593220 3
pavlovian_learning 11 one 67 CSplus 34 0.289307 1 63.559322 1
pavlovian_learning 11 one 68 CSplus 35 0.337874 1 63.559322 2
pavlovian_learning 11 one 69 CSplus 36 0.290150 1 63.559322 3
pavlovian_learning 11 one 70 CSminus 34 0.372695 1 35.593220 1
pavlovian_learning 11 one 71 CSminus 35 0.359988 1 35.593220 2
pavlovian_learning 11 one 72 CSminus 36 0.339120 1 35.593220 3
pavlovian_learning 11 one 73 CSplus 37 0.445258 1 63.559322 1
pavlovian_learning 11 one 74 CSplus 38 1.000000 0 63.559322 2
pavlovian_learning 11 one 75 CSplus 39 0.339292 1 63.559322 3
pavlovian_learning 11 one 76 CSminus 37 0.538329 1 35.593220 1
pavlovian_learning 11 one 77 CSminus 38 0.558929 1 35.593220 2
pavlovian_learning 11 one 78 CSminus 39 0.391310 1 35.593220 3
pavlovian_learning 11 one 79 CSplus 40 0.336313 1 63.559322 1
pavlovian_learning 11 one 80 CSplus 41 0.325613 1 63.559322 2
pavlovian_learning 11 one 81 CSplus 42 0.990783 1 63.559322 3
pavlovian_learning 11 one 82 CSminus 40 0.327389 1 35.593220 1
pavlovian_learning 11 one 83 CSminus 41 0.732113 1 35.593220 2
pavlovian_learning 11 one 84 CSminus 42 0.406108 1 35.593220 3
pavlovian_learning 11 one 85 CSplus 43 0.380636 1 63.559322 1
pavlovian_learning 11 one 86 CSplus 44 0.336380 1 63.559322 2
pavlovian_learning 11 one 87 CSplus 45 0.349248 1 63.559322 3
pavlovian_learning 11 one 88 CSminus 43 0.441165 1 35.593220 1
pavlovian_learning 11 one 89 CSminus 44 0.423794 1 35.593220 2
pavlovian_learning 11 one 90 CSminus 45 0.454158 1 35.593220 3
pavlovian_learning 11 one 91 CSplus 46 0.447224 1 63.559322 1
pavlovian_learning 11 one 92 CSplus 47 0.296424 1 63.559322 2
pavlovian_learning 11 one 93 CSplus 48 0.334219 1 63.559322 3
pavlovian_learning 11 one 94 CSminus 46 0.368829 1 35.593220 1
pavlovian_learning 11 one 95 CSminus 47 0.445886 1 35.593220 2
pavlovian_learning 11 one 96 CSminus 48 0.840515 1 35.593220 3
pavlovian_learning 11 one 97 CSplus 49 0.359468 1 63.559322 1
pavlovian_learning 11 one 98 CSplus 50 0.287373 1 63.559322 2
pavlovian_learning 11 one 99 CSplus 51 0.783628 1 63.559322 3
pavlovian_learning 11 one 100 CSminus 49 0.348667 1 35.593220 1
pavlovian_learning 11 one 101 CSminus 50 0.327783 1 35.593220 2
pavlovian_learning 11 one 102 CSminus 51 0.307635 1 35.593220 3
pavlovian_learning 11 one 103 CSplus 52 0.313943 1 63.559322 1
pavlovian_learning 11 one 104 CSplus 53 0.296854 1 63.559322 2
pavlovian_learning 11 one 105 CSplus 54 0.414064 1 63.559322 3
pavlovian_learning 11 one 106 CSminus 52 0.315167 1 35.593220 1
pavlovian_learning 11 one 107 CSminus 53 0.290508 1 35.593220 2
pavlovian_learning 11 one 108 CSminus 54 0.265700 1 35.593220 3
pavlovian_learning 11 one 109 Baseline 0 NaN NaN 60.169492 NaN
pavlovian_learning 12 one 1 CSplus 1 0.519625 1 86.440678 1
pavlovian_learning 12 one 2 CSplus 2 0.385616 1 86.440678 2
pavlovian_learning 12 one 3 CSplus 3 0.377456 1 86.440678 3
pavlovian_learning 12 one 4 CSminus 1 0.387913 1 25.423729 1
pavlovian_learning 12 one 5 CSminus 2 0.478295 1 25.423729 2
pavlovian_learning 12 one 6 CSminus 3 0.324587 1 25.423729 3
pavlovian_learning 12 one 7 CSplus 4 0.384426 1 86.440678 1
pavlovian_learning 12 one 8 CSplus 5 0.363338 1 86.440678 2
pavlovian_learning 12 one 9 CSplus 6 0.347731 1 86.440678 3
pavlovian_learning 12 one 10 CSminus 4 0.379914 1 25.423729 1
pavlovian_learning 12 one 11 CSminus 5 0.285292 1 25.423729 2
pavlovian_learning 12 one 12 CSminus 6 0.436433 1 25.423729 3
pavlovian_learning 12 one 13 CSplus 7 0.219765 1 86.440678 1
pavlovian_learning 12 one 14 CSplus 8 0.314752 1 86.440678 2
pavlovian_learning 12 one 15 CSplus 9 0.279002 1 86.440678 3
pavlovian_learning 12 one 16 CSminus 7 0.358809 1 25.423729 1
pavlovian_learning 12 one 17 CSminus 8 0.413206 1 25.423729 2
pavlovian_learning 12 one 18 CSminus 9 0.340995 1 25.423729 3
pavlovian_learning 12 one 19 CSplus 10 0.380592 1 86.440678 1
pavlovian_learning 12 one 20 CSplus 11 0.421020 1 86.440678 2
pavlovian_learning 12 one 21 CSplus 12 0.385490 1 86.440678 3
pavlovian_learning 12 one 22 CSminus 10 0.307712 1 25.423729 1
pavlovian_learning 12 one 23 CSminus 11 0.319133 1 25.423729 2
pavlovian_learning 12 one 24 CSminus 12 0.513631 1 25.423729 3
pavlovian_learning 12 one 25 CSplus 13 0.333781 1 86.440678 1
pavlovian_learning 12 one 26 CSplus 14 0.346290 1 86.440678 2
pavlovian_learning 12 one 27 CSplus 15 0.402381 1 86.440678 3
pavlovian_learning 12 one 28 CSminus 13 0.429655 1 25.423729 1
pavlovian_learning 12 one 29 CSminus 14 0.409297 1 25.423729 2
pavlovian_learning 12 one 30 CSminus 15 0.308487 1 25.423729 3
pavlovian_learning 12 one 31 CSplus 16 0.336602 1 86.440678 1
pavlovian_learning 12 one 32 CSplus 17 0.421481 1 86.440678 2
pavlovian_learning 12 one 33 CSplus 18 0.233193 1 86.440678 3
pavlovian_learning 12 one 34 CSminus 16 0.538176 1 25.423729 1
pavlovian_learning 12 one 35 CSminus 17 0.472831 1 25.423729 2
pavlovian_learning 12 one 36 CSminus 18 0.453773 1 25.423729 3
pavlovian_learning 12 one 37 CSplus 19 0.298763 1 86.440678 1
pavlovian_learning 12 one 38 CSplus 20 0.360323 1 86.440678 2
pavlovian_learning 12 one 39 CSplus 21 0.312818 1 86.440678 3
pavlovian_learning 12 one 40 CSminus 19 0.307325 1 25.423729 1
pavlovian_learning 12 one 41 CSminus 20 0.353303 1 25.423729 2
pavlovian_learning 12 one 42 CSminus 21 0.157756 1 25.423729 3
pavlovian_learning 12 one 43 CSplus 22 0.399184 1 86.440678 1
pavlovian_learning 12 one 44 CSplus 23 0.314261 1 86.440678 2
pavlovian_learning 12 one 45 CSplus 24 0.388901 1 86.440678 3
pavlovian_learning 12 one 46 CSminus 22 0.452004 1 25.423729 1
pavlovian_learning 12 one 47 CSminus 23 0.400383 1 25.423729 2
pavlovian_learning 12 one 48 CSminus 24 0.297730 1 25.423729 3
pavlovian_learning 12 one 49 CSplus 25 0.326221 1 86.440678 1
pavlovian_learning 12 one 50 CSplus 26 0.478396 1 86.440678 2
pavlovian_learning 12 one 51 CSplus 27 0.347020 1 86.440678 3
pavlovian_learning 12 one 52 CSminus 25 0.390499 1 25.423729 1
pavlovian_learning 12 one 53 CSminus 26 0.333884 1 25.423729 2
pavlovian_learning 12 one 54 CSminus 27 0.314834 1 25.423729 3
pavlovian_learning 12 one 55 CSplus 28 0.129613 1 86.440678 1
pavlovian_learning 12 one 56 CSplus 29 0.255590 1 86.440678 2
pavlovian_learning 12 one 57 CSplus 30 0.314026 1 86.440678 3
pavlovian_learning 12 one 58 CSminus 28 0.449750 1 25.423729 1
pavlovian_learning 12 one 59 CSminus 29 0.310356 1 25.423729 2
pavlovian_learning 12 one 60 CSminus 30 0.693459 1 25.423729 3
pavlovian_learning 12 one 61 CSplus 31 0.269596 1 86.440678 1
pavlovian_learning 12 one 62 CSplus 32 0.341911 1 86.440678 2
pavlovian_learning 12 one 63 CSplus 33 0.298297 1 86.440678 3
pavlovian_learning 12 one 64 CSminus 31 0.803899 1 25.423729 1
pavlovian_learning 12 one 65 CSminus 32 0.335702 1 25.423729 2
pavlovian_learning 12 one 66 CSminus 33 0.332899 1 25.423729 3
pavlovian_learning 12 one 67 CSplus 34 0.330298 1 86.440678 1
pavlovian_learning 12 one 68 CSplus 35 0.403509 1 86.440678 2
pavlovian_learning 12 one 69 CSplus 36 0.500426 1 86.440678 3
pavlovian_learning 12 one 70 CSminus 34 0.625816 1 25.423729 1
pavlovian_learning 12 one 71 CSminus 35 0.294713 1 25.423729 2
pavlovian_learning 12 one 72 CSminus 36 0.333583 1 25.423729 3
pavlovian_learning 12 one 73 CSplus 37 0.380162 1 86.440678 1
pavlovian_learning 12 one 74 CSplus 38 0.439652 1 86.440678 2
pavlovian_learning 12 one 75 CSplus 39 0.615416 1 86.440678 3
pavlovian_learning 12 one 76 CSminus 37 0.301268 1 25.423729 1
pavlovian_learning 12 one 77 CSminus 38 0.488143 1 25.423729 2
pavlovian_learning 12 one 78 CSminus 39 0.308283 1 25.423729 3
pavlovian_learning 12 one 79 CSplus 40 0.377744 1 86.440678 1
pavlovian_learning 12 one 80 CSplus 41 0.295453 1 86.440678 2
pavlovian_learning 12 one 81 CSplus 42 0.430584 1 86.440678 3
pavlovian_learning 12 one 82 CSminus 40 0.308662 1 25.423729 1
pavlovian_learning 12 one 83 CSminus 41 0.300718 1 25.423729 2
pavlovian_learning 12 one 84 CSminus 42 0.274754 1 25.423729 3
pavlovian_learning 12 one 85 CSplus 43 0.392191 1 86.440678 1
pavlovian_learning 12 one 86 CSplus 44 0.337364 1 86.440678 2
pavlovian_learning 12 one 87 CSplus 45 0.273615 1 86.440678 3
pavlovian_learning 12 one 88 CSminus 43 0.372958 1 25.423729 1
pavlovian_learning 12 one 89 CSminus 44 0.406156 1 25.423729 2
pavlovian_learning 12 one 90 CSminus 45 0.327114 1 25.423729 3
pavlovian_learning 12 one 91 CSplus 46 0.277705 1 86.440678 1
pavlovian_learning 12 one 92 CSplus 47 0.408086 1 86.440678 2
pavlovian_learning 12 one 93 CSplus 48 0.292684 1 86.440678 3
pavlovian_learning 12 one 94 CSminus 46 0.423368 1 25.423729 1
pavlovian_learning 12 one 95 CSminus 47 0.213637 1 25.423729 2
pavlovian_learning 12 one 96 CSminus 48 0.305262 1 25.423729 3
pavlovian_learning 12 one 97 CSplus 49 0.318004 1 86.440678 1
pavlovian_learning 12 one 98 CSplus 50 0.282353 1 86.440678 2
pavlovian_learning 12 one 99 CSplus 51 0.310922 1 86.440678 3
pavlovian_learning 12 one 100 CSminus 49 0.046078 1 25.423729 1
pavlovian_learning 12 one 101 CSminus 50 0.314445 1 25.423729 2
pavlovian_learning 12 one 102 CSminus 51 0.392341 1 25.423729 3
pavlovian_learning 12 one 103 CSplus 52 0.359753 1 86.440678 1
pavlovian_learning 12 one 104 CSplus 53 0.292493 1 86.440678 2
pavlovian_learning 12 one 105 CSplus 54 0.440486 1 86.440678 3
pavlovian_learning 12 one 106 CSminus 52 0.874363 1 25.423729 1
pavlovian_learning 12 one 107 CSminus 53 0.445050 1 25.423729 2
pavlovian_learning 12 one 108 CSminus 54 0.303102 1 25.423729 3
pavlovian_learning 12 one 109 Baseline 0 NaN NaN 49.152542 NaN
pavlovian_learning 13 one 1 CSplus 1 0.424166 1 84.745763 1
pavlovian_learning 13 one 2 CSplus 2 0.292223 1 84.745763 2
pavlovian_learning 13 one 3 CSplus 3 0.288283 1 84.745763 3
pavlovian_learning 13 one 4 CSminus 1 0.423351 1 37.288136 1
pavlovian_learning 13 one 5 CSminus 2 0.341652 1 37.288136 2
pavlovian_learning 13 one 6 CSminus 3 0.320474 1 37.288136 3
pavlovian_learning 13 one 7 CSplus 4 0.360561 1 84.745763 1
pavlovian_learning 13 one 8 CSplus 5 0.329513 1 84.745763 2
pavlovian_learning 13 one 9 CSplus 6 0.353902 1 84.745763 3
pavlovian_learning 13 one 10 CSminus 4 0.335638 1 37.288136 1
pavlovian_learning 13 one 11 CSminus 5 0.313531 1 37.288136 2
pavlovian_learning 13 one 12 CSminus 6 0.375433 1 37.288136 3
pavlovian_learning 13 one 13 CSplus 7 0.389983 1 84.745763 1
pavlovian_learning 13 one 14 CSplus 8 0.348032 1 84.745763 2
pavlovian_learning 13 one 15 CSplus 9 0.286450 1 84.745763 3
pavlovian_learning 13 one 16 CSminus 7 0.426814 1 37.288136 1
pavlovian_learning 13 one 17 CSminus 8 0.349002 1 37.288136 2
pavlovian_learning 13 one 18 CSminus 9 0.293460 1 37.288136 3
pavlovian_learning 13 one 19 CSplus 10 0.345499 1 84.745763 1
pavlovian_learning 13 one 20 CSplus 11 0.383046 1 84.745763 2
pavlovian_learning 13 one 21 CSplus 12 0.269979 1 84.745763 3
pavlovian_learning 13 one 22 CSminus 10 0.387059 1 37.288136 1
pavlovian_learning 13 one 23 CSminus 11 0.345412 1 37.288136 2
pavlovian_learning 13 one 24 CSminus 12 0.326842 1 37.288136 3
pavlovian_learning 13 one 25 CSplus 13 0.314939 1 84.745763 1
pavlovian_learning 13 one 26 CSplus 14 0.300082 1 84.745763 2
pavlovian_learning 13 one 27 CSplus 15 0.333499 1 84.745763 3
pavlovian_learning 13 one 28 CSminus 13 0.289094 1 37.288136 1
pavlovian_learning 13 one 29 CSminus 14 0.474147 1 37.288136 2
pavlovian_learning 13 one 30 CSminus 15 0.277424 1 37.288136 3
pavlovian_learning 13 one 31 CSplus 16 0.329105 1 84.745763 1
pavlovian_learning 13 one 32 CSplus 17 0.290837 1 84.745763 2
pavlovian_learning 13 one 33 CSplus 18 0.257834 1 84.745763 3
pavlovian_learning 13 one 34 CSminus 16 0.287365 1 37.288136 1
pavlovian_learning 13 one 35 CSminus 17 0.345431 1 37.288136 2
pavlovian_learning 13 one 36 CSminus 18 0.415009 1 37.288136 3
pavlovian_learning 13 one 37 CSplus 19 0.341739 1 84.745763 1
pavlovian_learning 13 one 38 CSplus 20 0.300688 1 84.745763 2
pavlovian_learning 13 one 39 CSplus 21 0.370270 1 84.745763 3
pavlovian_learning 13 one 40 CSminus 19 0.300232 1 37.288136 1
pavlovian_learning 13 one 41 CSminus 20 0.423696 1 37.288136 2
pavlovian_learning 13 one 42 CSminus 21 0.279462 1 37.288136 3
pavlovian_learning 13 one 43 CSplus 22 0.390619 1 84.745763 1
pavlovian_learning 13 one 44 CSplus 23 0.255879 1 84.745763 2
pavlovian_learning 13 one 45 CSplus 24 0.284247 1 84.745763 3
pavlovian_learning 13 one 46 CSminus 22 0.413622 1 37.288136 1
pavlovian_learning 13 one 47 CSminus 23 0.331343 1 37.288136 2
pavlovian_learning 13 one 48 CSminus 24 0.290964 1 37.288136 3
pavlovian_learning 13 one 49 CSplus 25 0.267186 1 84.745763 1
pavlovian_learning 13 one 50 CSplus 26 0.321517 1 84.745763 2
pavlovian_learning 13 one 51 CSplus 27 0.327624 1 84.745763 3
pavlovian_learning 13 one 52 CSminus 25 0.295488 1 37.288136 1
pavlovian_learning 13 one 53 CSminus 26 0.350450 1 37.288136 2
pavlovian_learning 13 one 54 CSminus 27 0.341758 1 37.288136 3
pavlovian_learning 13 one 55 CSplus 28 0.321769 1 84.745763 1
pavlovian_learning 13 one 56 CSplus 29 0.398548 1 84.745763 2
pavlovian_learning 13 one 57 CSplus 30 0.325707 1 84.745763 3
pavlovian_learning 13 one 58 CSminus 28 0.289271 1 37.288136 1
pavlovian_learning 13 one 59 CSminus 29 0.515705 1 37.288136 2
pavlovian_learning 13 one 60 CSminus 30 0.347125 1 37.288136 3
pavlovian_learning 13 one 61 CSplus 31 0.304210 1 84.745763 1
pavlovian_learning 13 one 62 CSplus 32 0.308418 1 84.745763 2
pavlovian_learning 13 one 63 CSplus 33 0.279773 1 84.745763 3
pavlovian_learning 13 one 64 CSminus 31 0.322995 1 37.288136 1
pavlovian_learning 13 one 65 CSminus 32 0.342338 1 37.288136 2
pavlovian_learning 13 one 66 CSminus 33 0.287493 1 37.288136 3
pavlovian_learning 13 one 67 CSplus 34 0.298412 1 84.745763 1
pavlovian_learning 13 one 68 CSplus 35 0.271963 1 84.745763 2
pavlovian_learning 13 one 69 CSplus 36 0.503269 1 84.745763 3
pavlovian_learning 13 one 70 CSminus 34 0.438283 1 37.288136 1
pavlovian_learning 13 one 71 CSminus 35 0.316619 1 37.288136 2
pavlovian_learning 13 one 72 CSminus 36 0.258959 1 37.288136 3
pavlovian_learning 13 one 73 CSplus 37 0.282782 1 84.745763 1
pavlovian_learning 13 one 74 CSplus 38 0.354833 1 84.745763 2
pavlovian_learning 13 one 75 CSplus 39 0.325260 1 84.745763 3
pavlovian_learning 13 one 76 CSminus 37 0.283905 1 37.288136 1
pavlovian_learning 13 one 77 CSminus 38 0.354327 1 37.288136 2
pavlovian_learning 13 one 78 CSminus 39 0.303857 1 37.288136 3
pavlovian_learning 13 one 79 CSplus 40 0.311175 1 84.745763 1
pavlovian_learning 13 one 80 CSplus 41 0.428508 1 84.745763 2
pavlovian_learning 13 one 81 CSplus 42 0.283041 1 84.745763 3
pavlovian_learning 13 one 82 CSminus 40 0.308926 1 37.288136 1
pavlovian_learning 13 one 83 CSminus 41 0.338247 1 37.288136 2
pavlovian_learning 13 one 84 CSminus 42 0.303586 1 37.288136 3
pavlovian_learning 13 one 85 CSplus 43 0.370547 1 84.745763 1
pavlovian_learning 13 one 86 CSplus 44 0.262956 1 84.745763 2
pavlovian_learning 13 one 87 CSplus 45 0.255687 1 84.745763 3
pavlovian_learning 13 one 88 CSminus 43 0.333593 1 37.288136 1
pavlovian_learning 13 one 89 CSminus 44 0.319870 1 37.288136 2
pavlovian_learning 13 one 90 CSminus 45 0.271474 1 37.288136 3
pavlovian_learning 13 one 91 CSplus 46 0.288693 1 84.745763 1
pavlovian_learning 13 one 92 CSplus 47 0.400677 1 84.745763 2
pavlovian_learning 13 one 93 CSplus 48 0.455270 1 84.745763 3
pavlovian_learning 13 one 94 CSminus 46 0.299815 1 37.288136 1
pavlovian_learning 13 one 95 CSminus 47 0.315886 1 37.288136 2
pavlovian_learning 13 one 96 CSminus 48 0.272918 1 37.288136 3
pavlovian_learning 13 one 97 CSplus 49 0.397410 1 84.745763 1
pavlovian_learning 13 one 98 CSplus 50 0.365947 1 84.745763 2
pavlovian_learning 13 one 99 CSplus 51 0.816560 1 84.745763 3
pavlovian_learning 13 one 100 CSminus 49 0.394802 1 37.288136 1
pavlovian_learning 13 one 101 CSminus 50 0.332654 1 37.288136 2
pavlovian_learning 13 one 102 CSminus 51 0.451925 1 37.288136 3
pavlovian_learning 13 one 103 CSplus 52 0.282336 1 84.745763 1
pavlovian_learning 13 one 104 CSplus 53 0.476895 1 84.745763 2
pavlovian_learning 13 one 105 CSplus 54 0.488075 1 84.745763 3
pavlovian_learning 13 one 106 CSminus 52 0.301625 1 37.288136 1
pavlovian_learning 13 one 107 CSminus 53 0.424640 1 37.288136 2
pavlovian_learning 13 one 108 CSminus 54 0.497086 1 37.288136 3
pavlovian_learning 13 one 109 Baseline 0 NaN NaN 31.355932 NaN
pavlovian_learning 14 one 1 CSplus 1 0.387899 1 54.237288 1
pavlovian_learning 14 one 2 CSplus 2 0.440081 1 54.237288 2
pavlovian_learning 14 one 3 CSplus 3 0.353815 1 54.237288 3
pavlovian_learning 14 one 4 CSminus 1 0.542613 1 40.677966 1
pavlovian_learning 14 one 5 CSminus 2 0.365521 1 40.677966 2
pavlovian_learning 14 one 6 CSminus 3 0.495518 1 40.677966 3
pavlovian_learning 14 one 7 CSplus 4 0.284942 1 54.237288 1
pavlovian_learning 14 one 8 CSplus 5 0.463190 1 54.237288 2
pavlovian_learning 14 one 9 CSplus 6 0.395208 1 54.237288 3
pavlovian_learning 14 one 10 CSminus 4 0.389705 1 40.677966 1
pavlovian_learning 14 one 11 CSminus 5 0.344533 1 40.677966 2
pavlovian_learning 14 one 12 CSminus 6 0.627166 1 40.677966 3
pavlovian_learning 14 one 13 CSplus 7 0.500967 1 54.237288 1
pavlovian_learning 14 one 14 CSplus 8 0.376256 1 54.237288 2
pavlovian_learning 14 one 15 CSplus 9 0.407822 1 54.237288 3
pavlovian_learning 14 one 16 CSminus 7 0.412463 1 40.677966 1
pavlovian_learning 14 one 17 CSminus 8 0.434468 1 40.677966 2
pavlovian_learning 14 one 18 CSminus 9 0.357591 1 40.677966 3
pavlovian_learning 14 one 19 CSplus 10 0.116819 1 54.237288 1
pavlovian_learning 14 one 20 CSplus 11 0.361809 1 54.237288 2
pavlovian_learning 14 one 21 CSplus 12 0.555161 1 54.237288 3
pavlovian_learning 14 one 22 CSminus 10 0.232563 1 40.677966 1
pavlovian_learning 14 one 23 CSminus 11 0.559512 1 40.677966 2
pavlovian_learning 14 one 24 CSminus 12 0.349392 1 40.677966 3
pavlovian_learning 14 one 25 CSplus 13 0.355994 1 54.237288 1
pavlovian_learning 14 one 26 CSplus 14 0.413672 1 54.237288 2
pavlovian_learning 14 one 27 CSplus 15 0.475150 1 54.237288 3
pavlovian_learning 14 one 28 CSminus 13 0.285141 1 40.677966 1
pavlovian_learning 14 one 29 CSminus 14 0.483024 1 40.677966 2
pavlovian_learning 14 one 30 CSminus 15 0.524858 1 40.677966 3
pavlovian_learning 14 one 31 CSplus 16 0.341330 1 54.237288 1
pavlovian_learning 14 one 32 CSplus 17 0.426052 1 54.237288 2
pavlovian_learning 14 one 33 CSplus 18 0.385780 1 54.237288 3
pavlovian_learning 14 one 34 CSminus 16 0.325838 1 40.677966 1
pavlovian_learning 14 one 35 CSminus 17 0.552724 1 40.677966 2
pavlovian_learning 14 one 36 CSminus 18 0.653512 1 40.677966 3
pavlovian_learning 14 one 37 CSplus 19 0.338832 1 54.237288 1
pavlovian_learning 14 one 38 CSplus 20 0.383334 1 54.237288 2
pavlovian_learning 14 one 39 CSplus 21 0.524822 1 54.237288 3
pavlovian_learning 14 one 40 CSminus 19 0.348998 1 40.677966 1
pavlovian_learning 14 one 41 CSminus 20 0.388582 1 40.677966 2
pavlovian_learning 14 one 42 CSminus 21 0.389165 1 40.677966 3
pavlovian_learning 14 one 43 CSplus 22 0.288849 1 54.237288 1
pavlovian_learning 14 one 44 CSplus 23 0.501964 1 54.237288 2
pavlovian_learning 14 one 45 CSplus 24 0.754452 1 54.237288 3
pavlovian_learning 14 one 46 CSminus 22 0.322735 1 40.677966 1
pavlovian_learning 14 one 47 CSminus 23 0.293327 1 40.677966 2
pavlovian_learning 14 one 48 CSminus 24 0.557561 1 40.677966 3
pavlovian_learning 14 one 49 CSplus 25 0.454025 1 54.237288 1
pavlovian_learning 14 one 50 CSplus 26 0.478127 1 54.237288 2
pavlovian_learning 14 one 51 CSplus 27 0.468214 1 54.237288 3
pavlovian_learning 14 one 52 CSminus 25 0.398399 1 40.677966 1
pavlovian_learning 14 one 53 CSminus 26 0.400818 1 40.677966 2
pavlovian_learning 14 one 54 CSminus 27 0.450458 1 40.677966 3
pavlovian_learning 14 one 55 CSplus 28 0.346549 1 54.237288 1
pavlovian_learning 14 one 56 CSplus 29 0.322828 1 54.237288 2
pavlovian_learning 14 one 57 CSplus 30 0.486005 1 54.237288 3
pavlovian_learning 14 one 58 CSminus 28 0.457789 1 40.677966 1
pavlovian_learning 14 one 59 CSminus 29 0.416194 1 40.677966 2
pavlovian_learning 14 one 60 CSminus 30 0.493381 1 40.677966 3
pavlovian_learning 14 one 61 CSplus 31 0.371304 1 54.237288 1
pavlovian_learning 14 one 62 CSplus 32 0.470330 1 54.237288 2
pavlovian_learning 14 one 63 CSplus 33 0.396381 1 54.237288 3
pavlovian_learning 14 one 64 CSminus 31 0.467500 1 40.677966 1
pavlovian_learning 14 one 65 CSminus 32 0.342538 1 40.677966 2
pavlovian_learning 14 one 66 CSminus 33 0.616381 1 40.677966 3
pavlovian_learning 14 one 67 CSplus 34 0.342772 1 54.237288 1
pavlovian_learning 14 one 68 CSplus 35 0.531312 1 54.237288 2
pavlovian_learning 14 one 69 CSplus 36 0.423546 1 54.237288 3
pavlovian_learning 14 one 70 CSminus 34 0.268851 1 40.677966 1
pavlovian_learning 14 one 71 CSminus 35 0.493696 1 40.677966 2
pavlovian_learning 14 one 72 CSminus 36 0.605298 1 40.677966 3
pavlovian_learning 14 one 73 CSplus 37 0.367704 1 54.237288 1
pavlovian_learning 14 one 74 CSplus 38 0.306142 1 54.237288 2
pavlovian_learning 14 one 75 CSplus 39 0.537166 1 54.237288 3
pavlovian_learning 14 one 76 CSminus 37 0.287957 1 40.677966 1
pavlovian_learning 14 one 77 CSminus 38 0.619858 1 40.677966 2
pavlovian_learning 14 one 78 CSminus 39 0.597615 1 40.677966 3
pavlovian_learning 14 one 79 CSplus 40 0.328091 1 54.237288 1
pavlovian_learning 14 one 80 CSplus 41 0.468498 1 54.237288 2
pavlovian_learning 14 one 81 CSplus 42 0.328508 1 54.237288 3
pavlovian_learning 14 one 82 CSminus 40 0.333859 1 40.677966 1
pavlovian_learning 14 one 83 CSminus 41 0.464537 1 40.677966 2
pavlovian_learning 14 one 84 CSminus 42 0.372854 1 40.677966 3
pavlovian_learning 14 one 85 CSplus 43 0.501684 1 54.237288 1
pavlovian_learning 14 one 86 CSplus 44 0.451254 1 54.237288 2
pavlovian_learning 14 one 87 CSplus 45 0.324238 1 54.237288 3
pavlovian_learning 14 one 88 CSminus 43 0.343020 1 40.677966 1
pavlovian_learning 14 one 89 CSminus 44 0.283726 1 40.677966 2
pavlovian_learning 14 one 90 CSminus 45 0.319164 1 40.677966 3
pavlovian_learning 14 one 91 CSplus 46 0.469284 1 54.237288 1
pavlovian_learning 14 one 92 CSplus 47 0.343280 1 54.237288 2
pavlovian_learning 14 one 93 CSplus 48 0.302319 1 54.237288 3
pavlovian_learning 14 one 94 CSminus 46 0.451554 1 40.677966 1
pavlovian_learning 14 one 95 CSminus 47 0.331954 1 40.677966 2
pavlovian_learning 14 one 96 CSminus 48 0.299038 1 40.677966 3
pavlovian_learning 14 one 97 CSplus 49 0.341407 1 54.237288 1
pavlovian_learning 14 one 98 CSplus 50 0.286385 1 54.237288 2
pavlovian_learning 14 one 99 CSplus 51 0.330520 1 54.237288 3
pavlovian_learning 14 one 100 CSminus 49 0.461412 1 40.677966 1
pavlovian_learning 14 one 101 CSminus 50 0.441009 1 40.677966 2
pavlovian_learning 14 one 102 CSminus 51 0.491175 1 40.677966 3
pavlovian_learning 14 one 103 CSplus 52 0.350740 1 54.237288 1
pavlovian_learning 14 one 104 CSplus 53 0.707132 1 54.237288 2
pavlovian_learning 14 one 105 CSplus 54 0.410867 1 54.237288 3
pavlovian_learning 14 one 106 CSminus 52 0.331054 1 40.677966 1
pavlovian_learning 14 one 107 CSminus 53 0.328323 1 40.677966 2
pavlovian_learning 14 one 108 CSminus 54 0.362626 1 40.677966 3
pavlovian_learning 14 one 109 Baseline 0 NaN NaN 30.508475 NaN
pavlovian_learning 15 one 1 CSplus 1 0.469798 1 77.966102 1
pavlovian_learning 15 one 2 CSplus 2 0.435514 1 77.966102 2
pavlovian_learning 15 one 3 CSplus 3 0.535027 1 77.966102 3
pavlovian_learning 15 one 4 CSminus 1 0.381882 1 54.237288 1
pavlovian_learning 15 one 5 CSminus 2 0.515671 1 54.237288 2
pavlovian_learning 15 one 6 CSminus 3 0.678136 1 54.237288 3
pavlovian_learning 15 one 7 CSplus 4 0.551934 1 77.966102 1
pavlovian_learning 15 one 8 CSplus 5 0.461540 1 77.966102 2
pavlovian_learning 15 one 9 CSplus 6 0.430951 1 77.966102 3
pavlovian_learning 15 one 10 CSminus 4 0.652455 1 54.237288 1
pavlovian_learning 15 one 11 CSminus 5 0.415546 1 54.237288 2
pavlovian_learning 15 one 12 CSminus 6 0.589756 1 54.237288 3
pavlovian_learning 15 one 13 CSplus 7 0.324926 1 77.966102 1
pavlovian_learning 15 one 14 CSplus 8 0.413911 1 77.966102 2
pavlovian_learning 15 one 15 CSplus 9 0.370349 1 77.966102 3
pavlovian_learning 15 one 16 CSminus 7 0.675006 1 54.237288 1
pavlovian_learning 15 one 17 CSminus 8 0.532350 1 54.237288 2
pavlovian_learning 15 one 18 CSminus 9 0.667606 1 54.237288 3
pavlovian_learning 15 one 19 CSplus 10 0.085570 1 77.966102 1
pavlovian_learning 15 one 20 CSplus 11 0.637232 1 77.966102 2
pavlovian_learning 15 one 21 CSplus 12 0.821988 1 77.966102 3
pavlovian_learning 15 one 22 CSminus 10 0.468627 1 54.237288 1
pavlovian_learning 15 one 23 CSminus 11 0.455940 1 54.237288 2
pavlovian_learning 15 one 24 CSminus 12 0.336602 1 54.237288 3
pavlovian_learning 15 one 25 CSplus 13 0.448479 1 77.966102 1
pavlovian_learning 15 one 26 CSplus 14 0.500559 1 77.966102 2
pavlovian_learning 15 one 27 CSplus 15 0.553973 1 77.966102 3
pavlovian_learning 15 one 28 CSminus 13 0.505167 1 54.237288 1
pavlovian_learning 15 one 29 CSminus 14 0.738943 1 54.237288 2
pavlovian_learning 15 one 30 CSminus 15 0.521975 1 54.237288 3
pavlovian_learning 15 one 31 CSplus 16 0.362243 1 77.966102 1
pavlovian_learning 15 one 32 CSplus 17 0.547059 1 77.966102 2
pavlovian_learning 15 one 33 CSplus 18 0.340873 1 77.966102 3
pavlovian_learning 15 one 34 CSminus 16 0.468993 1 54.237288 1
pavlovian_learning 15 one 35 CSminus 17 0.424654 1 54.237288 2
pavlovian_learning 15 one 36 CSminus 18 0.472546 1 54.237288 3
pavlovian_learning 15 one 37 CSplus 19 0.370275 1 77.966102 1
pavlovian_learning 15 one 38 CSplus 20 1.000000 0 77.966102 2
pavlovian_learning 15 one 39 CSplus 21 0.359171 1 77.966102 3
pavlovian_learning 15 one 40 CSminus 19 0.391244 1 54.237288 1
pavlovian_learning 15 one 41 CSminus 20 0.678519 1 54.237288 2
pavlovian_learning 15 one 42 CSminus 21 0.469831 1 54.237288 3
pavlovian_learning 15 one 43 CSplus 22 0.416150 1 77.966102 1
pavlovian_learning 15 one 44 CSplus 23 0.584615 1 77.966102 2
pavlovian_learning 15 one 45 CSplus 24 0.460649 1 77.966102 3
pavlovian_learning 15 one 46 CSminus 22 0.331051 1 54.237288 1
pavlovian_learning 15 one 47 CSminus 23 0.440004 1 54.237288 2
pavlovian_learning 15 one 48 CSminus 24 0.643826 1 54.237288 3
pavlovian_learning 15 one 49 CSplus 25 0.359834 1 77.966102 1
pavlovian_learning 15 one 50 CSplus 26 0.525774 1 77.966102 2
pavlovian_learning 15 one 51 CSplus 27 0.530627 1 77.966102 3
pavlovian_learning 15 one 52 CSminus 25 0.597036 1 54.237288 1
pavlovian_learning 15 one 53 CSminus 26 0.568842 1 54.237288 2
pavlovian_learning 15 one 54 CSminus 27 0.323099 1 54.237288 3
pavlovian_learning 15 one 55 CSplus 28 0.392158 1 77.966102 1
pavlovian_learning 15 one 56 CSplus 29 0.732450 1 77.966102 2
pavlovian_learning 15 one 57 CSplus 30 0.827270 1 77.966102 3
pavlovian_learning 15 one 58 CSminus 28 0.366579 1 54.237288 1
pavlovian_learning 15 one 59 CSminus 29 0.586674 1 54.237288 2
pavlovian_learning 15 one 60 CSminus 30 0.309010 1 54.237288 3
pavlovian_learning 15 one 61 CSplus 31 0.403878 1 77.966102 1
pavlovian_learning 15 one 62 CSplus 32 0.605039 1 77.966102 2
pavlovian_learning 15 one 63 CSplus 33 0.460778 1 77.966102 3
pavlovian_learning 15 one 64 CSminus 31 0.441465 1 54.237288 1
pavlovian_learning 15 one 65 CSminus 32 0.309379 1 54.237288 2
pavlovian_learning 15 one 66 CSminus 33 0.321969 1 54.237288 3
pavlovian_learning 15 one 67 CSplus 34 0.488609 1 77.966102 1
pavlovian_learning 15 one 68 CSplus 35 0.436054 1 77.966102 2
pavlovian_learning 15 one 69 CSplus 36 0.621432 1 77.966102 3
pavlovian_learning 15 one 70 CSminus 34 0.378623 1 54.237288 1
pavlovian_learning 15 one 71 CSminus 35 0.334405 1 54.237288 2
pavlovian_learning 15 one 72 CSminus 36 0.490999 1 54.237288 3
pavlovian_learning 15 one 73 CSplus 37 0.423263 1 77.966102 1
pavlovian_learning 15 one 74 CSplus 38 1.000000 0 77.966102 2
pavlovian_learning 15 one 75 CSplus 39 0.416849 1 77.966102 3
pavlovian_learning 15 one 76 CSminus 37 0.311028 1 54.237288 1
pavlovian_learning 15 one 77 CSminus 38 0.313161 1 54.237288 2
pavlovian_learning 15 one 78 CSminus 39 1.000000 0 54.237288 3
pavlovian_learning 15 one 79 CSplus 40 0.352555 1 77.966102 1
pavlovian_learning 15 one 80 CSplus 41 0.411639 1 77.966102 2
pavlovian_learning 15 one 81 CSplus 42 0.949137 1 77.966102 3
pavlovian_learning 15 one 82 CSminus 40 0.427901 1 54.237288 1
pavlovian_learning 15 one 83 CSminus 41 0.776171 1 54.237288 2
pavlovian_learning 15 one 84 CSminus 42 0.528788 1 54.237288 3
pavlovian_learning 15 one 85 CSplus 43 0.985392 1 77.966102 1
pavlovian_learning 15 one 86 CSplus 44 0.640289 1 77.966102 2
pavlovian_learning 15 one 87 CSplus 45 0.519016 1 77.966102 3
pavlovian_learning 15 one 88 CSminus 43 0.341564 1 54.237288 1
pavlovian_learning 15 one 89 CSminus 44 0.287125 1 54.237288 2
pavlovian_learning 15 one 90 CSminus 45 0.436706 1 54.237288 3
pavlovian_learning 15 one 91 CSplus 46 0.370779 1 77.966102 1
pavlovian_learning 15 one 92 CSplus 47 0.635938 1 77.966102 2
pavlovian_learning 15 one 93 CSplus 48 1.000000 0 77.966102 3
pavlovian_learning 15 one 94 CSminus 46 0.348685 1 54.237288 1
pavlovian_learning 15 one 95 CSminus 47 0.449535 1 54.237288 2
pavlovian_learning 15 one 96 CSminus 48 0.314238 1 54.237288 3
pavlovian_learning 15 one 97 CSplus 49 0.450647 1 77.966102 1
pavlovian_learning 15 one 98 CSplus 50 0.472259 1 77.966102 2
pavlovian_learning 15 one 99 CSplus 51 0.369265 1 77.966102 3
pavlovian_learning 15 one 100 CSminus 49 0.376565 1 54.237288 1
pavlovian_learning 15 one 101 CSminus 50 0.745828 1 54.237288 2
pavlovian_learning 15 one 102 CSminus 51 0.388851 1 54.237288 3
pavlovian_learning 15 one 103 CSplus 52 0.399920 1 77.966102 1
pavlovian_learning 15 one 104 CSplus 53 0.372974 1 77.966102 2
pavlovian_learning 15 one 105 CSplus 54 0.840701 1 77.966102 3
pavlovian_learning 15 one 106 CSminus 52 0.590492 1 54.237288 1
pavlovian_learning 15 one 107 CSminus 53 0.297960 1 54.237288 2
pavlovian_learning 15 one 108 CSminus 54 0.374912 1 54.237288 3
pavlovian_learning 15 one 109 Baseline 0 NaN NaN 81.355932 NaN
pavlovian_learning 16 one 1 CSplus 1 0.875958 1 91.525424 1
pavlovian_learning 16 one 2 CSplus 2 0.521374 1 91.525424 2
pavlovian_learning 16 one 3 CSplus 3 0.344426 1 91.525424 3
pavlovian_learning 16 one 4 CSminus 1 0.370171 1 60.169492 1
pavlovian_learning 16 one 5 CSminus 2 0.481834 1 60.169492 2
pavlovian_learning 16 one 6 CSminus 3 0.333032 1 60.169492 3
pavlovian_learning 16 one 7 CSplus 4 0.517077 1 91.525424 1
pavlovian_learning 16 one 8 CSplus 5 0.875428 1 91.525424 2
pavlovian_learning 16 one 9 CSplus 6 0.669276 1 91.525424 3
pavlovian_learning 16 one 10 CSminus 4 0.402913 1 60.169492 1
pavlovian_learning 16 one 11 CSminus 5 0.559539 1 60.169492 2
pavlovian_learning 16 one 12 CSminus 6 0.488491 1 60.169492 3
pavlovian_learning 16 one 13 CSplus 7 0.525990 1 91.525424 1
pavlovian_learning 16 one 14 CSplus 8 0.513256 1 91.525424 2
pavlovian_learning 16 one 15 CSplus 9 0.552501 1 91.525424 3
pavlovian_learning 16 one 16 CSminus 7 0.431536 1 60.169492 1
pavlovian_learning 16 one 17 CSminus 8 0.488338 1 60.169492 2
pavlovian_learning 16 one 18 CSminus 9 0.426086 1 60.169492 3
pavlovian_learning 16 one 19 CSplus 10 0.342497 1 91.525424 1
pavlovian_learning 16 one 20 CSplus 11 0.469570 1 91.525424 2
pavlovian_learning 16 one 21 CSplus 12 0.380636 1 91.525424 3
pavlovian_learning 16 one 22 CSminus 10 0.378129 1 60.169492 1
pavlovian_learning 16 one 23 CSminus 11 0.411219 1 60.169492 2
pavlovian_learning 16 one 24 CSminus 12 0.437121 1 60.169492 3
pavlovian_learning 16 one 25 CSplus 13 0.363460 1 91.525424 1
pavlovian_learning 16 one 26 CSplus 14 0.426652 1 91.525424 2
pavlovian_learning 16 one 27 CSplus 15 0.359287 1 91.525424 3
pavlovian_learning 16 one 28 CSminus 13 0.344304 1 60.169492 1
pavlovian_learning 16 one 29 CSminus 14 0.417731 1 60.169492 2
pavlovian_learning 16 one 30 CSminus 15 0.416692 1 60.169492 3
pavlovian_learning 16 one 31 CSplus 16 0.344623 1 91.525424 1
pavlovian_learning 16 one 32 CSplus 17 0.403445 1 91.525424 2
pavlovian_learning 16 one 33 CSplus 18 0.387946 1 91.525424 3
pavlovian_learning 16 one 34 CSminus 16 0.356924 1 60.169492 1
pavlovian_learning 16 one 35 CSminus 17 0.961311 1 60.169492 2
pavlovian_learning 16 one 36 CSminus 18 0.371267 1 60.169492 3
pavlovian_learning 16 one 37 CSplus 19 0.345320 1 91.525424 1
pavlovian_learning 16 one 38 CSplus 20 0.444382 1 91.525424 2
pavlovian_learning 16 one 39 CSplus 21 0.327802 1 91.525424 3
pavlovian_learning 16 one 40 CSminus 19 0.324178 1 60.169492 1
pavlovian_learning 16 one 41 CSminus 20 0.491412 1 60.169492 2
pavlovian_learning 16 one 42 CSminus 21 0.374676 1 60.169492 3
pavlovian_learning 16 one 43 CSplus 22 0.341545 1 91.525424 1
pavlovian_learning 16 one 44 CSplus 23 0.407958 1 91.525424 2
pavlovian_learning 16 one 45 CSplus 24 0.423786 1 91.525424 3
pavlovian_learning 16 one 46 CSminus 22 0.338651 1 60.169492 1
pavlovian_learning 16 one 47 CSminus 23 0.408250 1 60.169492 2
pavlovian_learning 16 one 48 CSminus 24 0.370377 1 60.169492 3
pavlovian_learning 16 one 49 CSplus 25 0.450049 1 91.525424 1
pavlovian_learning 16 one 50 CSplus 26 0.513300 1 91.525424 2
pavlovian_learning 16 one 51 CSplus 27 0.409477 1 91.525424 3
pavlovian_learning 16 one 52 CSminus 25 0.341034 1 60.169492 1
pavlovian_learning 16 one 53 CSminus 26 0.407368 1 60.169492 2
pavlovian_learning 16 one 54 CSminus 27 0.367214 1 60.169492 3
pavlovian_learning 16 one 55 CSplus 28 0.424543 1 91.525424 1
pavlovian_learning 16 one 56 CSplus 29 0.495826 1 91.525424 2
pavlovian_learning 16 one 57 CSplus 30 0.479790 1 91.525424 3
pavlovian_learning 16 one 58 CSminus 28 0.360179 1 60.169492 1
pavlovian_learning 16 one 59 CSminus 29 0.422438 1 60.169492 2
pavlovian_learning 16 one 60 CSminus 30 0.387758 1 60.169492 3
pavlovian_learning 16 one 61 CSplus 31 0.382898 1 91.525424 1
pavlovian_learning 16 one 62 CSplus 32 0.444827 1 91.525424 2
pavlovian_learning 16 one 63 CSplus 33 0.383116 1 91.525424 3
pavlovian_learning 16 one 64 CSminus 31 0.369818 1 60.169492 1
pavlovian_learning 16 one 65 CSminus 32 0.397238 1 60.169492 2
pavlovian_learning 16 one 66 CSminus 33 0.328974 1 60.169492 3
pavlovian_learning 16 one 67 CSplus 34 0.465031 1 91.525424 1
pavlovian_learning 16 one 68 CSplus 35 0.418459 1 91.525424 2
pavlovian_learning 16 one 69 CSplus 36 0.461558 1 91.525424 3
pavlovian_learning 16 one 70 CSminus 34 0.361276 1 60.169492 1
pavlovian_learning 16 one 71 CSminus 35 0.494412 1 60.169492 2
pavlovian_learning 16 one 72 CSminus 36 0.544261 1 60.169492 3
pavlovian_learning 16 one 73 CSplus 37 0.383601 1 91.525424 1
pavlovian_learning 16 one 74 CSplus 38 0.413662 1 91.525424 2
pavlovian_learning 16 one 75 CSplus 39 0.393288 1 91.525424 3
pavlovian_learning 16 one 76 CSminus 37 0.352681 1 60.169492 1
pavlovian_learning 16 one 77 CSminus 38 0.423990 1 60.169492 2
